Count,Accel.X,Accel.Y,Accel.Z,Gyro.X,Gyro.Y,Gyro.Z
172,-0.0291,0.0082,1.0402,0.0087,-0.0009,-0.0017
173,-0.0278,0.0073,1.0377,0.0123,-0.0016,-0.0027
174,-0.0261,0.0087,1.041,0.0087,-0.0012,-0.0007
175,-0.0258,0.0103,1.0398,0.0095,-0.0001,-0.0023
176,-0.0299,0.0082,1.0409,0.0077,-0.0003,-0.0033
177,-0.0278,0.0092,1.0403,0.0111,-0.0029,-0.0019
178,-0.03,0.0111,1.0402,0.0096,-0.0029,-0.0039
179,-0.0293,0.0109,1.0396,0.01,-0.0039,-0.0015
180,-0.0293,0.0122,1.0391,0.0087,-0.0016,-0.0013
181,-0.0291,0.0125,1.0358,0.0096,-0.0019,-0.0015
182,-0.0269,0.0088,1.0388,0.008,-0.0001,-0.002
183,-0.0251,0.012,1.0411,0.01,-0.0024,-0.0029
184,-0.0271,0.0126,1.0419,0.0083,-0.0023,0.0
185,-0.0286,0.0114,1.0424,0.0067,-0.0029,-0.0029
186,-0.0278,0.009,1.0382,0.0146,-0.0048,-0.0027
187,-0.027,0.0095,1.0438,0.0095,-0.004,-0.0037
188,-0.0298,0.0087,1.0396,0.0083,-0.0008,-0.0004
189,-0.0264,0.0133,1.0397,0.0091,-0.0023,-0.0035
190,-0.0278,0.0103,1.033,0.012,-0.0005,-0.0029
191,-0.0258,0.0107,1.0388,0.0085,-0.0044,-0.0025
192,-0.0306,0.01,1.0344,0.0111,-0.0021,-0.0008
193,-0.0293,0.0112,1.0375,0.0085,-0.0033,-0.0012
194,-0.0295,0.0087,1.033,0.01,-0.0015,-0.0028
195,-0.0273,0.0109,1.0413,0.0104,-0.0008,-0.0029
196,-0.0282,0.0093,1.0347,0.0101,-0.0032,-0.0035
197,-0.0272,0.0112,1.0382,0.0075,-0.0027,-0.0013
198,-0.0289,0.0093,1.037,0.0109,-0.0048,-0.0041
199,-0.0292,0.0089,1.0375,0.0092,-0.0039,-0.0037
200,-0.0264,0.0101,1.0382,0.0083,-0.0037,-0.0013
201,-0.0284,0.0115,1.0358,0.0121,-0.0017,-0.0029
202,-0.0276,0.0098,1.0327,0.0111,-0.0029,0.0
203,-0.0282,0.0093,1.0356,0.0093,-0.0017,-0.0019
204,-0.028,0.0094,1.0343,0.0064,-0.0015,-0.0024
205,-0.0305,0.0134,1.0293,0.0084,-0.0024,-0.0035
206,-0.0297,0.0109,1.0336,0.0101,-0.0023,-0.0009
207,-0.0265,0.0101,1.037,0.0075,-0.0036,-0.0001
208,-0.028,0.011,1.037,0.0089,-0.0036,-0.0035
209,-0.0288,0.0115,1.0375,0.0068,-0.0045,-0.0011
210,-0.0273,0.0121,1.0405,0.01,-0.0037,-0.0011
211,-0.0281,0.0084,1.041,0.0083,-0.0041,-0.0039
212,-0.0275,0.011,1.0383,0.0083,-0.0028,-0.0025
213,-0.0294,0.0089,1.0308,0.0075,-0.0016,-0.0032
214,-0.0261,0.0101,1.0334,0.0073,-0.0021,-0.0037
215,-0.0304,0.0098,1.0364,0.0113,-0.0025,-0.0024
216,-0.028,0.0089,1.0393,0.0124,-0.0035,-0.0015
217,-0.0272,0.0115,1.0381,0.0096,-0.0019,-0.0024
218,-0.0281,0.0116,1.0371,0.0084,-0.0017,-0.0015
219,-0.0275,0.0129,1.0361,0.0089,-0.0027,-0.0004
220,-0.0309,0.0103,1.0403,0.0084,-0.0032,-0.0003
221,-0.0283,0.0118,1.0414,0.0126,-0.0021,-0.0023
222,-0.0282,0.011,1.0405,0.0075,-0.004,-0.0019
223,-0.0284,0.0089,1.0409,0.0093,-0.0025,-0.0025
224,-0.0297,0.0129,1.0403,0.0107,-0.0025,-0.0007
225,-0.0266,0.0095,1.0377,0.0096,-0.0016,-0.0015
226,-0.0273,0.0116,1.0394,0.0111,-0.0011,-0.0035
227,-0.0299,0.0077,1.038,0.0061,-0.0037,-0.0024
228,-0.0289,0.0123,1.0393,0.0077,-0.004,-0.0044
229,-0.0298,0.0078,1.0363,0.0108,-0.0032,-0.0033
230,-0.0299,0.0129,1.0393,0.0101,-0.0007,-0.0031
231,-0.0303,0.0083,1.0391,0.0092,-0.0045,-0.0027
232,-0.0264,0.0093,1.0435,0.0104,-0.0023,-0.0017
233,-0.0276,0.0082,1.0385,0.008,-0.0033,-0.0017
234,-0.03,0.0128,1.0419,0.0079,-0.0043,-0.0023
235,-0.0287,0.0094,1.0378,0.0068,-0.0027,-0.0005
236,-0.0269,0.011,1.0389,0.0125,-0.0035,-0.0016
237,-0.0297,0.0111,1.036,0.0103,-0.0023,-0.0021
238,-0.03,0.0096,1.0339,0.0081,-0.002,-0.0025
239,-0.0315,0.0132,1.0331,0.0107,-0.0033,-0.0015
240,-0.0276,0.0092,1.0325,0.0061,-0.0024,-0.0025
241,-0.0295,0.0099,1.0345,0.0119,-0.0029,-0.0011
242,-0.0283,0.0132,1.0363,0.0097,-0.0009,-0.0012
243,-0.0292,0.0095,1.038,0.0085,-0.0045,-0.0024
244,-0.0275,0.0084,1.0365,0.0092,-0.0024,-0.0008
245,-0.0273,0.0105,1.0349,0.0119,-0.0033,-0.0008
246,-0.0278,0.0115,1.0393,0.0084,-0.0041,-0.0027
247,-0.0289,0.0099,1.0377,0.0085,-0.0029,-0.0025
248,-0.0261,0.0093,1.0364,0.0091,-0.0008,-0.0019
249,-0.03,0.0073,1.0314,0.0079,-0.0016,-0.002
250,-0.0273,0.0106,1.0356,0.0092,-0.0023,-0.0035
251,-0.0282,0.0121,1.0334,0.0116,-0.0035,-0.0019
252,-0.0287,0.009,1.0354,0.0084,-0.0039,-0.0004
253,-0.0284,0.0123,1.0369,0.0067,-0.0013,-0.0017
254,-0.0298,0.0101,1.0365,0.0081,-0.0035,-0.0023
255,-0.0282,0.0126,1.0404,0.0075,-0.0028,-0.0039
256,-0.0317,0.0074,1.0394,0.0108,-0.0021,-0.002
257,-0.0284,0.0101,1.0399,0.0085,-0.0016,-0.0035
258,-0.0299,0.0115,1.0472,0.0093,-0.0019,-0.0035
259,-0.0273,0.0077,1.0388,0.0075,-0.0025,-0.0016
260,-0.0284,0.0132,1.0383,0.0104,-0.0019,-0.0009
261,-0.0277,0.0117,1.0356,0.0105,-0.0023,-0.0024
262,-0.0286,0.0098,1.0343,0.0128,-0.0019,-0.0017
263,-0.0291,0.0116,1.0404,0.01,-0.0025,-0.0029
264,-0.0283,0.0085,1.0404,0.0107,-0.0049,-0.0031
265,-0.0314,0.012,1.0364,0.0096,-0.0025,-0.0012
266,-0.0266,0.0088,1.0415,0.0097,-0.0033,-0.0024
267,-0.0282,0.0193,1.0397,0.0089,-0.0048,-0.0013
268,-0.0281,0.0128,1.0403,0.0128,-0.0036,-0.0013
269,-0.0266,0.0106,1.0393,0.0108,-0.0024,-0.0004
270,-0.0261,0.0105,1.0367,0.0099,-0.0009,-0.0028
271,-0.0287,0.0079,1.0391,0.0104,-0.0024,-0.0024
272,-0.0288,0.0089,1.0364,0.0096,-0.006,-0.0019
273,-0.0306,0.0114,1.0382,0.008,-0.0005,-0.0019
274,-0.0304,0.0093,1.0375,0.0089,-0.0016,0.0003
275,-0.0278,0.01,1.0414,0.0099,-0.0043,-0.0013
276,-0.0278,0.0077,1.0343,0.0089,-0.0036,-0.0044
277,-0.0287,0.0081,1.0396,0.0095,-0.0036,-0.0024
278,-0.0276,0.0096,1.0414,0.0079,-0.0011,-0.0032
279,-0.0269,0.0123,1.043,0.0115,0.0005,-0.0016
280,-0.027,0.0076,1.0404,0.0084,-0.0031,-0.0013
281,-0.0277,0.0098,1.0433,0.0044,-0.0069,-0.0013
282,-0.0282,0.0098,1.0394,0.0081,-0.0028,-0.0011
283,-0.0275,0.01,1.0365,0.0083,-0.0036,-0.0021
284,-0.0288,0.0076,1.0308,0.0101,-0.0043,-0.0019
285,-0.0254,0.0131,1.0375,0.0134,-0.0009,-0.0013
286,-0.0281,0.0121,1.0308,0.0095,-0.0021,-0.0005
287,-0.0297,0.0125,1.0372,0.0053,-0.0051,-0.0031
288,-0.0272,0.0095,1.0391,0.0023,-0.0045,0.0008
289,-0.0283,0.0101,1.0341,0.0068,0.002,-0.0051
290,-0.028,0.006,1.0399,0.0136,-0.0043,-0.0055
291,-0.0269,0.0089,1.036,0.012,0.0,-0.0052
292,-0.0283,0.0123,1.0353,0.0093,-0.0016,-0.002
293,-0.0219,0.0033,1.0402,0.0093,-0.0017,-0.0056
294,-0.0238,0.0056,1.0374,0.008,-0.0021,-0.0189
295,-0.02,0.0112,1.0359,0.0048,0.0019,-0.0306
296,-0.0315,0.0127,1.0365,0.0104,-0.0011,-0.0273
297,-0.0289,0.0109,1.0345,0.0091,-0.0029,-0.0101
298,-0.0231,0.0104,1.0388,0.0055,-0.0021,-0.0242
299,-0.0325,0.0104,1.0396,0.0053,-0.0033,-0.0032
300,-0.0271,0.0088,1.0389,0.0096,-0.0039,-0.0016
301,-0.0278,0.0115,1.0399,0.0091,-0.0011,-0.0008
302,-0.0286,0.0073,1.0371,0.004,-0.0019,-0.0005
303,-0.0259,0.0122,1.038,0.0021,-0.0051,-0.0001
304,-0.0306,0.0067,1.0388,0.004,-0.0028,-0.0023
305,-0.0269,0.0087,1.0386,0.0071,-0.0037,-0.0001
306,-0.0237,0.014,1.0409,0.0031,-0.0039,0.0051
307,0.0061,-0.0524,0.9961,-0.0944,-0.0124,0.2748
308,0.0045,0.0437,1.0657,-0.1957,-0.0108,0.0722
309,-0.032,0.0372,1.0687,-0.3306,-0.0385,0.0115
310,-0.0264,-0.0131,1.0358,-0.5059,-0.0558,0.013
311,-0.0253,-0.0388,1.036,-0.472,-0.0558,0.0208
312,-0.0073,-0.0444,1.0685,-0.6343,-0.065,0.0755
313,-0.0306,-0.072,1.0393,-0.8081,-0.1328,0.0503
314,-0.0083,-0.0774,0.9912,-0.7441,-0.0828,-0.1832
315,-0.0068,-0.093,1.0243,-0.6134,-0.0758,-0.0107
316,-0.0151,-0.1453,1.0514,-0.6816,-0.0846,-0.1173
317,0.0049,-0.1306,1.0062,-0.6441,0.02,-0.1308
318,-0.0132,-0.1001,1.0328,-0.4443,0.1373,-0.0075
319,-0.0104,-0.1475,1.0244,-0.4636,0.0345,0.0405
320,-0.0178,-0.1732,1.0287,-0.4963,0.041,0.0443
321,-0.0149,-0.2007,1.0389,-0.6676,-0.0209,0.0079
322,-0.0151,-0.2225,1.0078,-0.6242,0.1044,-0.0154
323,-0.0273,-0.2068,1.0229,-0.6028,0.1694,-0.0258
324,-0.0297,-0.2117,1.0267,-0.8031,0.1152,-0.0558
325,-0.0347,-0.2412,0.99,-0.8788,0.1039,-0.0157
326,-0.0298,-0.3025,0.988,-0.786,0.0706,-0.0057
327,-0.0317,-0.2905,0.9818,-0.6885,0.096,-0.0334
328,-0.0458,-0.306,0.972,-0.7248,0.0885,-0.0308
329,-0.0404,-0.3094,1.0029,-0.8082,0.0387,-0.0666
330,-0.0424,-0.3391,0.9814,-0.912,0.01,-0.0667
331,-0.038,-0.3715,0.9559,-0.8933,-0.015,-0.0666
332,-0.0333,-0.3951,0.9523,-0.8632,0.0221,-0.0264
333,-0.0432,-0.4028,0.9642,-0.8853,0.0446,-0.0206
334,-0.0446,-0.4259,0.9469,-0.9821,0.0277,-0.0204
335,-0.0497,-0.4724,0.9332,-1.0361,0.072,-0.034
336,-0.0444,-0.4777,0.9001,-1.1917,0.0654,-0.0453
337,-0.042,-0.4896,0.8948,-1.2674,0.039,-0.0533
338,-0.0397,-0.5299,0.8715,-1.1222,0.0618,-0.0475
339,-0.0419,-0.5481,0.8491,-1.1365,0.0668,-0.0782
340,-0.0305,-0.5573,0.845,-1.1555,-0.0061,-0.0419
341,-0.0457,-0.5978,0.842,-0.9021,-0.0005,-0.0033
342,-0.0398,-0.6243,0.7905,-0.8522,0.0273,-0.0075
343,-0.0464,-0.6497,0.7948,-0.9546,0.0004,-0.0027
344,-0.0419,-0.6588,0.7959,-0.8849,-0.026,0.0334
345,-0.0476,-0.6849,0.7531,-0.8144,0.0141,0.0089
346,-0.0502,-0.6979,0.7472,-0.9636,0.0294,-0.0334
347,-0.0548,-0.6942,0.7463,-1.0315,0.0043,-0.0228
348,-0.0533,-0.7133,0.7124,-0.9576,0.0221,-0.0154
349,-0.0487,-0.7455,0.7036,-0.9655,0.0401,0.0177
350,-0.0405,-0.7468,0.655,-1.0953,0.0141,0.0017
351,-0.0457,-0.7598,0.6658,-1.3369,-0.0433,-0.023
352,-0.0342,-0.7944,0.6455,-1.3182,-0.0485,-0.0352
353,-0.0563,-0.8365,0.5886,-1.2054,0.0594,-0.0752
354,-0.0453,-0.8396,0.527,-1.3554,0.0623,-0.0308
355,-0.059,-0.8457,0.5137,-1.7239,-0.0063,-0.0718
356,0.015,-0.9384,0.5315,-1.7651,-0.1679,-0.0787
357,-0.0531,-0.8796,0.5219,-1.1801,0.1269,-0.0366
358,-0.0409,-0.9016,0.4207,-1.1646,0.0254,-0.0943
359,-0.0461,-0.9169,0.4115,-1.2832,-0.023,-0.0806
360,-0.0302,-0.9502,0.4062,-1.0213,-0.0132,-0.0611
361,-0.0474,-0.9526,0.3553,-0.7919,-0.0072,-0.0485
362,-0.0754,-0.9161,0.2974,-1.0016,-0.0495,-0.1285
363,-0.0131,-0.9537,0.2809,-1.1359,-0.0985,-0.0378
364,-0.0361,-0.9739,0.3142,-1.0995,-0.1498,-0.012
365,-0.0188,-0.9424,0.2598,-1.0198,-0.0923,-0.0068
366,-0.0249,-0.9684,0.212,-1.1804,-0.0888,-0.0414
367,-0.0408,-0.9878,0.1849,-1.3467,-0.0924,-0.049
368,-0.0255,-0.9978,0.1891,-1.4254,-0.1265,-0.0622
369,-0.0261,-0.9974,0.1448,-1.3551,-0.1277,-0.076
370,-0.016,-0.9902,0.1011,-1.3267,-0.0451,-0.0579
371,-0.0216,-0.9984,0.0651,-1.2933,-0.0345,-0.0333
372,-0.0098,-0.9603,0.0184,-1.6935,-0.1314,-0.0758
373,-0.0258,-1.0186,0.0206,-1.6889,-0.1326,-0.0791
374,-0.0339,-1.0792,0.0216,-1.2369,-0.1202,-0.0141
375,-0.0043,-1.0042,-0.0852,-0.9351,-0.0535,-0.0041
376,0.0082,-0.9832,-0.1547,-1.1843,0.0081,-0.0502
377,-0.0082,-0.9895,-0.1575,-1.3787,0.0248,-0.0443
378,-0.0374,-0.9845,-0.2002,-1.4674,0.0377,0.0385
379,-0.0176,-1.001,-0.2291,-1.2519,0.1956,0.0055
380,-0.0013,-0.9611,-0.2269,-1.2935,0.2373,-0.1101
381,-0.0054,-0.944,-0.2653,-1.408,0.2294,-0.1495
382,-0.0217,-0.9178,-0.3093,-1.4514,0.1776,-0.0453
383,-0.0123,-0.9146,-0.3224,-1.3554,0.0513,0.0272
384,0.0034,-0.8721,-0.3413,-1.5915,-0.0043,0.0937
385,0.0026,-0.7961,-0.4258,-2.8139,-0.1107,0.0126
386,0.0043,-0.8698,-0.5172,-2.6751,-0.0495,-0.1118
387,0.001,-0.8984,-0.5391,-1.8472,0.1108,0.0545
388,-0.0181,-0.9546,-0.5834,-1.5779,0.1395,0.102
389,0.0341,-0.8015,-0.6793,-1.433,0.1266,-0.018
390,0.0347,-0.7765,-0.6521,-1.4178,0.1509,-0.0788
391,0.0111,-0.7957,-0.6322,-0.9009,0.0956,-0.0023
392,0.0197,-0.6964,-0.6735,-0.8347,0.0891,-0.0401
393,0.0094,-0.6803,-0.6909,-0.9134,0.1417,0.0109
394,0.0266,-0.6808,-0.6605,-0.9395,0.1185,0.0282
395,0.0156,-0.7035,-0.6814,-0.7603,0.1301,0.0268
396,0.0109,-0.6929,-0.6753,-0.3604,0.1538,0.0575
397,0.0199,-0.7413,-0.7234,0.188,0.0851,0.0888
398,0.0288,-0.6835,-0.7349,0.4575,0.0696,0.0892
399,0.0226,-0.6696,-0.7288,-0.0561,-0.0186,0.0136
400,0.0178,-0.726,-0.7208,0.4427,0.0144,0.0286
401,0.025,-0.7065,-0.7085,1.0598,0.0154,0.0832
402,0.0067,-0.7349,-0.6863,1.0426,0.0284,0.082
403,0.0061,-0.806,-0.6646,1.2797,-0.0493,0.0663
404,0.0117,-0.7124,-0.6179,1.1459,-0.1814,0.1541
405,0.0093,-0.7393,-0.6321,0.8754,-0.2454,0.055
406,-0.0189,-0.7827,-0.5717,0.8853,-0.2265,0.0977
407,-0.0042,-0.8492,-0.5865,1.3883,-0.1341,0.0688
408,0.0092,-0.7839,-0.6146,0.8908,-0.1802,0.0668
409,-0.0197,-0.8091,-0.5343,0.4989,-0.0739,0.0007
410,-0.0156,-0.8712,-0.4906,0.9716,0.0081,0.0383
411,-0.0065,-0.8879,-0.5388,1.5415,0.0513,0.1324
412,-0.0222,-0.818,-0.5464,0.9487,-0.0415,0.1153
413,-0.0243,-0.8518,-0.4668,0.564,0.0104,0.0334
414,-0.0189,-0.9263,-0.3688,1.0441,0.0252,0.0692
415,-0.0305,-0.9199,-0.3834,1.2299,0.029,0.1333
416,-0.0165,-0.9089,-0.4207,1.2174,0.0249,0.1288
417,-0.0204,-0.9147,-0.3693,1.0622,0.0035,0.0877
418,-0.0258,-0.9126,-0.3507,0.7839,-0.0438,0.0374
419,-0.0393,-0.9346,-0.3314,0.7202,-0.0834,0.0385
420,-0.0314,-0.9287,-0.3003,0.77,-0.0814,0.0545
421,-0.0397,-0.9487,-0.2772,0.9642,-0.017,0.0703
422,-0.0338,-0.958,-0.2443,1.0152,0.0511,0.064
423,-0.0342,-0.9713,-0.2357,0.9527,0.0403,0.0514
424,-0.045,-0.9803,-0.2112,0.9256,-0.0138,0.0586
425,-0.0415,-0.975,-0.1718,1.0009,0.033,0.0443
426,-0.0513,-0.9979,-0.1349,1.1812,0.0794,0.0936
427,-0.0463,-0.9935,-0.1157,1.2049,-0.0349,0.0832
428,-0.0459,-0.989,-0.0826,1.3435,0.0206,0.0358
429,-0.0378,-0.9932,-0.0199,1.555,0.0664,0.0378
430,-0.0383,-1.0308,-0.007,1.7706,0.1068,0.0567
431,-0.0537,-1.0002,-0.0278,1.6747,0.1614,0.0644
432,-0.0546,-0.9795,-0.0215,1.2598,0.1903,0.0577
433,-0.0638,-0.9943,0.0282,0.7474,0.1121,0.016
434,-0.056,-1.0052,0.0765,0.4486,0.0029,0.0016
435,-0.0535,-0.9933,0.1278,0.5221,0.0282,0.0752
436,-0.0531,-0.9991,0.1794,0.6944,0.0365,0.0796
437,-0.0614,-1.0195,0.1973,0.9129,0.0181,0.0431
438,-0.0629,-1.0051,0.189,1.1535,0.0234,0.0292
439,-0.0603,-1.0092,0.2151,1.2892,-0.0447,0.0419
440,-0.0547,-0.976,0.2443,1.3972,-0.0763,0.0357
441,-0.0591,-0.9482,0.2695,1.4919,-0.0364,0.0031
442,-0.0647,-0.9525,0.3099,1.4751,-0.0421,0.0119
443,-0.057,-0.9474,0.3406,1.509,-0.0555,0.0126
444,-0.0509,-0.932,0.3569,1.4315,-0.0237,-0.0087
445,-0.0592,-0.8994,0.3815,1.314,0.0117,-0.0101
446,-0.0626,-0.8799,0.4236,1.1418,-0.0256,-0.0232
447,-0.0714,-0.8795,0.4767,1.1393,-0.0281,-0.0248
448,-0.0435,-0.8601,0.4844,1.0852,-0.0638,0.0048
449,-0.0592,-0.8682,0.4989,0.9852,-0.0463,-0.0368
450,-0.057,-0.8748,0.5247,0.9525,-0.0507,-0.0193
451,-0.0576,-0.8403,0.5709,1.0118,-0.0565,0.0148
452,-0.0563,-0.8434,0.5891,1.1128,-0.0605,0.0035
453,-0.0524,-0.8362,0.6035,1.0506,-0.0289,0.0115
454,-0.0549,-0.8016,0.6282,1.104,-0.0071,0.0598
455,-0.058,-0.7699,0.6646,1.1706,-0.022,0.0644
456,-0.0585,-0.7493,0.6783,1.1825,-0.0427,0.0611
457,-0.0499,-0.734,0.6816,1.2166,-0.051,0.0594
458,-0.0663,-0.7202,0.7173,1.2815,-0.0525,0.0418
459,-0.0594,-0.7007,0.7528,1.4639,-0.0401,0.0101
460,-0.0533,-0.6635,0.7717,1.5371,-0.0928,-0.0382
461,-0.0533,-0.6633,0.778,1.4425,-0.1115,-0.0405
462,-0.0571,-0.6387,0.8033,1.3687,0.0051,0.0225
463,-0.0527,-0.5808,0.8414,1.2157,-0.0043,0.0099
464,-0.0402,-0.5608,0.8501,1.1526,-0.0168,-0.0103
465,-0.0514,-0.5303,0.8564,1.0246,0.0515,0.0157
466,-0.0468,-0.527,0.8851,0.8972,0.0949,0.0298
467,-0.0601,-0.5038,0.8995,0.8855,0.1145,0.0529
468,-0.045,-0.4691,0.9181,1.0382,0.1317,0.0375
469,-0.0599,-0.4565,0.9312,1.2471,0.0748,0.0318
470,-0.0721,-0.4351,0.9552,1.3189,0.0469,0.0493
471,-0.0649,-0.3926,0.9421,1.2606,0.0518,0.0518
472,-0.0668,-0.3683,0.9197,1.0981,0.0107,0.0345
473,-0.0648,-0.355,0.9583,0.7859,0.062,0.0254
474,-0.071,-0.345,0.9473,0.5429,0.1043,-0.0115
475,-0.0796,-0.3153,0.9581,0.5742,0.1522,0.004
476,-0.0656,-0.3165,1.0229,0.8029,0.0648,0.0418
477,-0.0835,-0.2994,1.0468,1.145,-0.013,0.0746
478,-0.0758,-0.2916,1.0164,1.3198,0.0471,0.1052
479,-0.0688,-0.2317,0.9656,1.2182,0.1268,0.0955
480,-0.0793,-0.1833,0.9988,0.923,0.0763,0.0119
481,-0.0817,-0.1685,1.0558,0.8708,-0.0695,-0.0285
482,-0.1006,-0.1707,1.0474,1.0,-0.039,-0.0056
483,-0.0776,-0.1165,1.0193,0.8214,-0.0509,-0.0242
484,-0.0642,-0.0839,0.9893,0.6952,-0.1253,0.0265
485,-0.0548,-0.0735,0.9979,0.5196,-0.2189,0.0398
486,-0.0685,-0.089,1.0093,0.208,-0.1332,0.0115
487,-0.0681,-0.0869,1.0663,0.3549,-0.2312,0.0128
488,-0.0782,-0.0876,1.0382,0.5985,-0.3928,-0.0178
489,-0.0135,-0.062,1.0563,0.7758,-0.3252,-0.0217
490,-0.0267,-0.0458,1.0516,0.773,-0.1521,0.0045
491,-0.0259,-0.037,0.9973,0.8875,-0.1076,-0.0379
492,-0.0809,0.1488,1.1483,0.6667,-0.1816,-0.0403
493,-0.0166,0.0078,1.087,-0.1461,-0.0091,-0.0381
494,-0.0353,0.0112,1.0793,-0.0872,0.0356,0.0071
495,-0.0242,-0.0361,1.0283,0.0154,-0.0068,-0.0222
496,-0.0269,0.0591,1.0355,0.0158,0.0001,-0.1632
497,-0.028,0.0161,1.037,0.0072,-0.0043,-0.0254
498,-0.026,0.0129,1.0391,0.0032,-0.0001,-0.0083
499,-0.0327,0.0065,1.03,0.0055,-0.0013,-0.0055
500,-0.0282,0.0151,1.0375,0.0069,-0.0043,-0.0027
501,-0.0312,0.0088,1.0339,0.0132,-0.0024,-0.0031
502,-0.028,0.01,1.0397,0.0161,-0.0012,-0.002
503,-0.0288,0.0109,1.0361,0.0057,0.0008,-0.0029
504,-0.0304,0.0126,1.0321,0.0068,-0.0015,-0.0003
505,-0.0299,0.0121,1.0365,0.0137,-0.0063,-0.0041
506,-0.028,0.0084,1.0374,0.014,-0.0037,-0.0028
507,-0.0292,0.0096,1.0345,0.0107,-0.0027,-0.0016
508,-0.0289,0.0126,1.0356,0.0071,-0.0028,-0.0019
509,-0.0289,0.006,1.0347,0.0077,-0.0035,-0.0016
510,-0.0283,0.0116,1.0389,0.015,-0.0052,-0.0015
511,-0.0281,0.0126,1.037,0.0117,0.0001,-0.0019
512,-0.0273,0.0088,1.0375,0.0063,-0.0011,-0.0013
513,-0.0288,0.0095,1.0361,0.0117,-0.0031,-0.002
514,-0.0267,0.012,1.0405,0.0109,-0.0037,-0.0017
515,-0.0277,0.0087,1.0377,0.0126,-0.0009,-0.0021
516,-0.0282,0.0109,1.0382,0.0069,-0.0035,-0.0005
517,-0.0303,0.0089,1.0358,0.012,-0.0047,-0.0033
518,-0.0264,0.0103,1.0354,0.0097,-0.0016,-0.0008
519,-0.03,0.009,1.0356,0.008,-0.0017,-0.0013
520,-0.0284,0.009,1.0388,0.0088,-0.0033,-0.0017
521,-0.0277,0.0089,1.042,0.0105,-0.0056,-0.0009
522,-0.0287,0.0082,1.0388,0.0076,-0.0031,-0.0017
523,-0.0291,0.0133,1.0388,0.0128,-0.0017,-0.0004
524,-0.0298,0.0074,1.0398,0.0101,-0.0031,-0.0004
525,-0.0264,0.0067,1.0361,0.0069,-0.0035,-0.0003
526,-0.028,0.0077,1.0382,0.0091,-0.0045,0.0004
527,-0.0276,0.0083,1.0359,0.0097,-0.0019,-0.0023
528,-0.031,0.0099,1.036,0.0085,-0.0005,-0.0027
529,-0.0272,0.0092,1.037,0.0097,-0.0016,-0.0005
530,-0.0262,0.0074,1.0409,0.0101,-0.0012,-0.0023
531,-0.0282,0.0121,1.0402,0.0037,-0.004,-0.0004
532,-0.0283,0.0079,1.0342,0.0017,-0.004,-0.0029
533,-0.0243,0.0072,1.0382,0.0111,-0.0052,-0.0029
534,-0.0327,0.0061,1.04,0.012,-0.0051,-0.0048
535,-0.03,0.0099,1.0393,0.0123,-0.0024,-0.0017
536,-0.0289,0.0067,1.0388,0.0096,-0.0017,-0.0023
537,-0.0253,0.0084,1.0415,0.0077,-0.0027,-0.004
538,-0.0297,0.0066,1.0338,0.01,-0.0011,-0.0033
539,-0.0291,0.0085,1.0442,0.013,-0.0045,-0.0031
540,-0.0286,0.0096,1.0378,0.0138,-0.0051,-0.0023
541,-0.0299,0.0084,1.0391,0.0093,-0.0005,-0.0036
542,-0.0281,0.0033,1.0374,0.0084,0.0017,-0.0071
543,-0.0248,0.0076,1.0366,0.0107,-0.0045,-0.0077
544,-0.0305,0.0083,1.0343,0.0097,-0.0021,0.0023
545,-0.0283,0.0073,1.0371,0.0101,-0.0029,0.0005
546,-0.0286,0.0085,1.037,0.0137,-0.002,-0.0012
547,-0.0282,0.0121,1.0377,0.0109,-0.0031,-0.0029
548,-0.027,0.0074,1.0348,0.0065,-0.0033,0.0004
549,-0.0277,0.0107,1.032,0.0158,-0.0013,0.0007
550,-0.0374,0.0184,1.0442,0.0198,-0.0001,0.0064
551,-0.0294,0.0115,1.037,0.0056,-0.0039,-0.0001
552,-0.0443,0.012,1.0383,0.0196,-0.0097,0.0702
553,-0.0485,0.0304,1.0699,-0.0505,-0.0144,0.0121
554,0.0129,-0.0065,1.0721,-0.1507,-0.0426,0.0241
555,-0.0305,0.009,1.0582,0.1252,-0.1486,0.0624
556,0.0054,-0.0425,1.0452,0.2831,-0.2308,0.1221
557,0.0028,0.0115,1.1038,0.3479,-0.2612,0.1407
558,0.0081,0.0062,1.1066,0.3551,-0.2174,0.1121
559,-0.0122,0.0145,1.0989,0.4439,-0.0325,0.0462
560,-0.0173,0.0524,1.0452,0.5891,0.0541,0.0601
561,-0.0117,0.0543,1.0416,0.7992,0.1418,0.079
562,-0.0087,0.0693,1.0566,1.0439,0.2542,0.1063
563,-0.0223,0.1368,1.0167,1.2596,0.3344,0.174
564,-0.052,0.1309,0.9935,1.3996,0.3067,0.1453
565,-0.0139,0.1903,1.004,1.3598,0.2531,0.0952
566,-0.0411,0.2197,0.9874,1.3963,0.2057,0.1015
567,-0.0262,0.2332,0.9539,1.3876,0.2326,0.1065
568,-0.0459,0.2915,0.9783,1.4473,0.2338,0.1413
569,-0.0558,0.3477,0.9771,1.4166,0.1648,0.1493
570,-0.0452,0.3428,0.9918,1.3551,0.1931,0.1365
571,-0.0659,0.3676,0.9792,1.5844,0.2435,0.1373
572,-0.061,0.4292,0.9097,1.4571,0.0642,0.1378
573,-0.0552,0.4558,0.9047,1.0269,0.0423,0.1204
574,-0.0607,0.4773,0.9001,1.0142,-0.0481,0.2273
575,-0.0784,0.4817,0.8868,1.1013,-0.0474,0.1808
576,-0.045,0.5555,0.851,1.0764,-0.0438,0.2318
577,-0.0404,0.5581,0.8514,0.9515,-0.0116,0.2019
578,-0.0477,0.5522,0.8588,0.9852,-0.0538,0.1909
579,-0.0492,0.5753,0.8459,0.9664,0.0302,0.1465
580,-0.0245,0.6393,0.8218,0.7353,0.0117,0.1338
581,-0.0215,0.6591,0.8363,0.5927,0.0864,0.1895
582,-0.0342,0.6381,0.8429,0.7201,0.08,0.1923
583,-0.0397,0.6418,0.8519,0.8796,0.0763,0.1624
584,-0.0159,0.6718,0.8363,1.0799,0.0096,0.2154
585,-0.0309,0.6571,0.8152,1.335,0.0061,0.2601
586,-0.0269,0.7041,0.7661,1.5337,-0.0501,0.3027
587,0.0132,0.8108,0.7491,1.7136,-0.014,0.4072
588,-0.0103,0.7566,0.693,1.7245,-0.0321,0.4181
589,0.0162,0.8218,0.6415,1.4968,-0.137,0.4134
590,0.0448,0.8378,0.636,1.5177,-0.1865,0.3702
591,0.0349,0.8317,0.5538,1.5647,-0.1289,0.3072
592,0.0044,0.8392,0.5312,1.7033,-0.1519,0.3869
593,0.0553,0.8575,0.5176,1.3917,-0.0823,0.3647
594,0.0559,0.8711,0.4899,1.3816,-0.0237,0.3917
595,0.0544,0.8463,0.4705,1.4983,-0.1277,0.3282
596,0.0529,0.8679,0.4075,1.7381,-0.1129,0.2885
597,0.0632,0.9537,0.3788,1.7278,-0.1435,0.1996
598,0.0681,0.9701,0.3221,1.5113,-0.2374,0.2417
599,0.0728,0.9773,0.2819,1.6092,-0.1972,0.3005
600,0.0922,0.9794,0.2545,1.4735,-0.1575,0.2217
601,0.1147,0.9631,0.1753,1.2809,-0.121,0.1766
602,0.0946,0.9891,0.1631,1.4438,-0.0382,0.0879
603,0.1107,0.9976,0.1455,1.5149,0.0206,0.079
604,0.1066,1.0132,0.1219,1.2434,0.0433,0.0913
605,0.1144,0.9987,0.0936,1.3236,0.0454,0.1234
606,0.1373,1.0054,0.0566,1.5524,0.1306,0.076
607,0.1029,0.9542,0.041,1.5598,0.1126,-0.0025
608,0.1309,0.9597,-0.0192,1.3606,0.0176,0.0192
609,0.1448,0.9541,-0.0334,1.4441,0.0972,-0.0134
610,0.1276,0.8597,-0.1058,1.6275,0.094,-0.076
611,0.108,0.9003,-0.0956,1.3731,-0.0352,-0.1329
612,0.1305,0.9523,-0.1552,1.2852,-0.118,-0.0076
613,0.1257,0.9814,-0.2328,1.143,-0.1051,0.0254
614,0.1134,1.0023,-0.2574,0.6928,-0.068,0.0499
615,0.1241,0.9792,-0.2914,0.4136,0.0646,0.0491
616,0.1217,0.9622,-0.2968,0.2867,0.1107,-0.0265
617,0.1447,0.9404,-0.3112,-0.0386,0.0762,-0.0218
618,0.1433,0.9296,-0.2905,-0.0379,0.1977,-0.1529
619,0.0931,0.9445,-0.2565,-0.0678,0.1943,-0.2355
620,0.1094,0.9513,-0.2263,-0.049,0.0891,-0.2254
621,0.0934,0.9581,-0.2283,-0.3328,-0.0112,-0.1787
622,0.1134,0.9736,-0.2069,-0.572,-0.0531,-0.1146
623,0.1064,0.9631,-0.1777,-0.5333,-0.0483,-0.1426
624,0.0768,0.9489,-0.2203,-0.4953,-0.0418,-0.1473
625,0.0715,0.9624,-0.2319,-0.8096,-0.0441,-0.0863
626,0.073,0.9872,-0.1993,-1.1395,-0.0836,-0.0956
627,0.0785,0.9307,-0.1508,-0.8855,0.0996,-0.155
628,0.0717,0.9088,-0.1002,-0.7064,0.1305,-0.2904
629,0.0895,0.9707,-0.0565,-0.984,-0.0463,-0.1001
630,0.0892,1.0205,-0.0825,-1.2726,-0.0718,-0.1474
631,0.0939,0.985,-0.0223,-1.2102,-0.0387,-0.1296
632,0.0496,0.9846,0.049,-1.1109,0.0221,-0.1586
633,0.0642,1.0321,0.059,-1.1658,-0.0322,-0.2063
634,0.0543,1.0061,0.0677,-1.3104,-0.0869,-0.1498
635,0.0444,0.9602,0.1112,-1.2065,-0.0758,-0.1381
636,0.0537,0.9908,0.1196,-1.1369,-0.0687,-0.1431
637,0.035,1.0247,0.1503,-1.364,-0.0021,-0.1622
638,0.0497,0.9886,0.1844,-1.2551,0.0551,-0.1941
639,0.0242,0.9731,0.2351,-1.2387,0.1551,-0.2065
640,0.0292,0.9324,0.2412,-1.2273,0.0987,-0.2161
641,0.0052,0.911,0.2371,-1.1991,0.0796,-0.3019
642,0.0242,0.9994,0.3521,-1.3279,0.0174,-0.2466
643,0.0061,0.9465,0.3884,-1.6112,0.0252,-0.1943
644,0.0084,0.8966,0.4033,-1.5138,-0.0224,-0.3068
645,-0.0038,0.915,0.447,-1.3626,0.0708,-0.2329
646,-0.0029,0.9048,0.4615,-1.1799,0.0782,-0.2198
647,-0.0223,0.8663,0.4781,-1.4459,0.1316,-0.3049
648,-0.0339,0.8948,0.5229,-1.5274,0.043,-0.2881
649,-0.0472,0.8451,0.5399,-1.4855,-0.0487,-0.2734
650,-0.0184,0.8291,0.5459,-1.4105,-0.0126,-0.3035
651,-0.0496,0.7957,0.6195,-1.4634,0.0043,-0.3141
652,-0.0309,0.7704,0.6167,-1.3664,-0.0365,-0.2555
653,-0.0557,0.7622,0.6556,-1.3576,0.0184,-0.2346
654,-0.0652,0.7804,0.7129,-1.3005,-0.0663,-0.1876
655,-0.0496,0.7031,0.7454,-1.3916,-0.0859,-0.2393
656,-0.0531,0.6915,0.7506,-1.2419,-0.1126,-0.222
657,-0.0503,0.74,0.7587,-1.3263,-0.0738,-0.2414
658,-0.0839,0.6459,0.803,-1.2357,-0.1051,-0.1826
659,-0.0648,0.5901,0.7969,-1.0514,-0.1644,-0.1875
660,-0.0698,0.6128,0.8027,-1.1869,-0.1144,-0.1715
661,-0.0739,0.6201,0.8472,-1.2849,-0.0089,-0.1692
662,-0.0986,0.5321,0.8585,-1.0703,-0.0601,-0.1627
663,-0.0635,0.5243,0.8761,-1.0507,-0.174,-0.1497
664,-0.0852,0.5359,0.9065,-1.029,-0.1041,-0.1538
665,-0.0863,0.4668,0.9045,-1.0165,0.0241,-0.2095
666,-0.0837,0.4554,0.9249,-1.0134,-0.0481,-0.2435
667,-0.0616,0.4338,0.9304,-1.0622,-0.0502,-0.217
668,-0.0742,0.4346,0.9673,-0.9868,0.0273,-0.2348
669,-0.1013,0.3673,0.9838,-0.9916,-0.077,-0.202
670,-0.0568,0.3828,0.9506,-1.0971,-0.0911,-0.2252
671,-0.0718,0.3524,0.9771,-1.219,0.0079,-0.2177
672,-0.0851,0.306,1.01,-1.1097,-0.1036,-0.1794
673,-0.0833,0.2717,1.0094,-0.7355,-0.1668,-0.1985
674,-0.0812,0.28,0.9895,-0.5584,-0.0823,-0.1839
675,-0.0978,0.2742,0.9912,-0.6533,-0.1843,-0.162
676,-0.0724,0.2732,0.9889,-0.7595,-0.322,-0.1462
677,-0.0605,0.2107,1.0049,-0.7045,-0.2869,-0.1134
678,-0.0717,0.2036,1.0142,-0.5932,-0.2652,-0.0755
679,-0.0461,0.2003,1.0048,-0.484,-0.3936,0.1369
680,-0.0536,0.2089,1.0493,-0.5245,-0.2089,-0.0695
681,-0.048,0.1488,1.0391,-0.4459,-0.2087,-0.0485
682,-0.0259,0.1664,1.0226,-0.4106,-0.1925,-0.0242
683,-0.0231,0.1781,0.9994,-0.4663,-0.1482,-0.0477
684,-0.036,0.1437,0.9949,-0.6225,-0.0462,-0.0704
685,-0.0205,0.1252,1.0192,-0.7296,-0.0935,-0.1317
686,-0.0142,0.0925,1.005,-0.7285,-0.1752,-0.2318
687,-0.019,0.0779,1.012,-0.4301,-0.0919,-0.1495
688,-0.011,0.073,0.9873,-0.3023,-0.2125,-0.1156
689,-0.0209,0.0565,0.9691,-0.1756,-0.3438,-0.1079
690,0.0035,0.0664,0.9622,0.0474,-0.4405,-0.0941
691,0.0419,0.0779,0.9678,0.0736,-0.5246,-0.0871
692,-0.0558,0.046,1.0732,-1.1825,0.6465,-0.2869
693,0.1227,-0.245,1.0562,-1.0485,0.8815,-0.2213
694,-0.1039,-0.0001,1.0677,-0.0137,0.0206,-0.0242
695,-0.0231,0.0149,1.0209,0.0129,0.0004,-0.0142
696,-0.0291,0.0044,1.0027,-0.0085,0.0033,0.0001
697,-0.031,0.0054,1.0295,0.0003,0.0004,-0.0032
698,-0.0305,0.009,1.0284,0.0145,0.0,-0.0016
699,-0.0309,0.0121,1.0352,0.01,0.0024,-0.0036
700,-0.0297,0.0123,1.0409,0.0097,-0.0008,-0.0028
701,-0.0267,0.0116,1.04,0.0083,-0.0016,-0.0015
702,-0.032,0.0077,1.0391,0.0091,-0.0013,-0.0015
703,-0.0292,0.0078,1.0404,0.0084,-0.0028,-0.0025
704,-0.028,0.0061,1.0337,0.0112,-0.0008,-0.0023
705,-0.0283,0.0116,1.041,0.008,-0.0037,-0.0029
706,-0.0302,0.0105,1.0317,0.0097,-0.0019,-0.0019
707,-0.0294,0.0077,1.0393,0.0032,-0.0029,-0.0024
708,-0.0304,0.0099,1.0337,0.0092,-0.0019,-0.0009
709,-0.0298,0.0094,1.0382,0.0103,-0.0033,-0.0024
710,-0.0316,0.0087,1.0383,0.0097,-0.0031,-0.0028
711,-0.0289,0.0094,1.0411,0.0113,-0.0027,-0.004
712,-0.0292,0.0062,1.0311,0.0095,-0.0017,-0.0037
713,-0.0288,0.0095,1.0405,0.0057,-0.0025,-0.0029
714,-0.0306,0.0112,1.0345,0.01,-0.0017,-0.0017
715,-0.0315,0.0098,1.0396,0.0113,-0.0001,-0.0036
716,-0.0315,0.0096,1.0336,0.01,-0.0021,-0.0032
717,-0.028,0.0109,1.038,0.0097,-0.0024,-0.0029
718,-0.0286,0.0089,1.0389,0.0093,-0.0019,-0.0008
719,-0.026,0.0072,1.04,0.0073,-0.0016,-0.0013
720,-0.033,0.0083,1.037,0.0108,-0.0036,-0.0015
721,-0.0299,0.0067,1.0343,0.0107,-0.0017,0.0003
722,-0.0286,0.0093,1.0343,0.0085,-0.0035,-0.0016
723,-0.0306,0.0122,1.0352,0.0072,-0.0036,0.0007
724,-0.0282,0.0085,1.0352,0.0095,-0.0024,-0.0016
725,-0.0295,0.0084,1.0378,0.012,-0.0009,-0.0011
726,-0.0328,0.0096,1.0374,0.0109,-0.0016,-0.0016
727,-0.0295,0.0114,1.0374,0.012,-0.0036,-0.0031
728,-0.0305,0.0094,1.0326,0.0097,-0.0012,-0.0031
729,-0.0281,0.0067,1.0366,0.0087,-0.0012,-0.0015
730,-0.0294,0.0065,1.0354,0.0063,-0.0029,-0.0043
731,-0.031,0.0067,1.0337,0.0105,-0.0032,-0.0023
732,-0.0259,0.0106,1.0364,0.0085,-0.0013,-0.0005
733,-0.0271,0.0054,1.0311,0.0071,-0.0015,-0.0033
734,-0.0295,0.0145,1.0333,0.0113,-0.0019,-0.0031
735,-0.0315,0.0067,1.0374,0.0113,-0.0005,-0.0011
736,-0.0299,0.0066,1.0347,0.0101,-0.0005,-0.0056
737,-0.0322,0.0089,1.038,0.0073,-0.0033,0.0009
738,-0.0299,0.0062,1.031,0.0093,0.0017,0.0025
739,-0.0297,0.0133,1.0411,0.0072,0.0005,0.0003
740,-0.0338,0.0012,1.0303,-0.0125,0.0079,0.004
741,-0.0239,0.0034,1.0642,-0.0068,0.0385,-0.0462
742,-0.0249,0.0333,1.0758,-0.1193,0.1276,0.0169
743,-0.0535,0.0063,1.041,-0.2586,0.1579,0.0136
744,-0.0342,-0.001,1.0538,-0.2363,0.2091,-0.0286
745,-0.1326,-0.0548,1.0674,-0.2474,0.3313,-0.0091
746,-0.0546,-0.0298,1.0592,-0.2048,0.4647,-0.0194
747,-0.0809,-0.0333,1.0491,-0.224,0.5988,-0.0052
748,-0.1082,-0.0503,1.0261,-0.1774,0.6542,-0.0202
749,-0.1256,-0.0579,1.021,-0.2188,0.6441,-0.0348
750,-0.1539,-0.0717,1.0748,-0.1908,0.5719,0.0286
751,-0.1628,-0.0514,1.0884,-0.0124,0.5467,-0.0174
752,-0.1605,-0.0223,1.0544,0.0792,0.5015,0.017
753,-0.1741,-0.0295,1.0245,0.0474,0.4908,0.0357
754,-0.1949,-0.0311,1.0388,0.096,0.4984,0.0093
755,-0.1965,-0.0309,1.0432,0.1104,0.4502,0.1077
756,-0.1935,-0.0275,1.0238,0.1228,0.4824,0.118
757,-0.1997,-0.0715,0.9745,0.0375,0.5807,0.0651
758,-0.2402,-0.0443,1.0026,0.0454,0.5868,0.1089
759,-0.2384,-0.0144,1.0026,0.0144,0.5407,0.0935
760,-0.2666,-0.0289,0.9786,0.0161,0.5253,0.0305
761,-0.2882,-0.0203,1.0028,0.0582,0.4567,0.0455
762,-0.2859,-0.0029,0.9987,-0.0222,0.4245,0.0217
763,-0.2847,-0.0277,0.9689,-0.0357,0.4771,0.0113
764,-0.3126,-0.0273,1.0048,0.0188,0.5494,0.02
765,-0.3489,-0.0081,1.0231,0.0493,0.5361,0.0244
766,-0.33,-0.0206,0.9669,-0.0742,0.7351,-0.0292
767,-0.4019,0.0068,1.0046,-0.1244,0.7292,0.0646
768,-0.3534,-0.0388,0.9652,0.0383,0.7647,0.1118
769,-0.3927,-0.0635,0.9437,0.0262,0.9021,0.0896
770,-0.426,-0.0135,0.9421,-0.1236,0.9767,0.0471
771,-0.446,-0.0076,0.9504,-0.0571,0.9019,0.1257
772,-0.4622,-0.0414,0.92,-0.0409,0.8872,0.2099
773,-0.4945,-0.0471,0.9092,-0.0233,0.9409,0.2437
774,-0.5223,-0.0536,0.9213,-0.0581,0.8341,0.1694
775,-0.5377,-0.0101,0.9482,-0.1438,0.6688,0.1854
776,-0.5404,-0.0262,0.9181,0.0198,0.7216,0.2109
777,-0.5581,-0.0179,0.9061,-0.0382,0.7618,0.2518
778,-0.5615,-0.0105,0.8717,-0.0007,0.7349,0.2495
779,-0.5548,-0.0739,0.8201,-0.0176,0.8281,0.1465
780,-0.598,-0.0074,0.8264,-0.2059,0.873,0.1426
781,-0.5753,0.0138,0.8049,-0.1796,0.8298,0.1534
782,-0.6099,-0.02,0.8088,-0.1746,0.9082,0.0971
783,-0.6257,-0.0355,0.7501,-0.1342,0.792,0.4431
784,-0.6512,0.0232,0.7803,-0.1642,0.7431,0.4884
785,-0.692,0.004,0.7468,-0.098,0.6937,0.288
786,-0.7175,-0.031,0.7548,-0.0477,0.7033,0.0506
787,-0.7109,-0.03,0.8136,-0.1111,0.7453,0.0085
788,-0.7206,-0.0363,0.7172,-0.1682,0.7996,-0.0326
789,-0.7551,0.0052,0.7479,-0.1839,0.8066,-0.0107
790,-0.7893,0.004,0.7411,-0.002,0.6293,-0.0015
791,-0.7679,0.0309,0.7,-0.1109,0.5064,0.0278
792,-0.7549,0.0475,0.6764,-0.2836,0.5041,-0.07
793,-0.8195,-0.0256,0.6895,-0.0487,0.4208,-0.0165
794,-0.7787,-0.0194,0.6714,-0.2393,0.3859,-0.0855
795,-0.7712,-0.067,0.6365,-0.3407,0.4903,-0.1253
796,-0.8127,-0.0522,0.6387,-0.3446,0.6304,-0.1378
797,-0.847,-0.0315,0.6693,-0.5459,0.5687,-0.1864
798,-0.8245,-0.1248,0.6404,-0.5935,0.598,-0.1806
799,-0.8263,-0.098,0.6262,-0.3029,0.6972,0.0514
800,-0.837,-0.0917,0.5984,-0.4764,0.7406,0.0248
801,-0.859,-0.1147,0.5737,-0.5194,0.6293,-0.0736
802,-0.8357,-0.1519,0.5366,-0.8281,0.6554,-0.1439
803,-0.8341,-0.0728,0.5343,-0.8861,0.7153,-0.0927
804,-0.8427,-0.1357,0.5251,-0.5663,0.7556,-0.0819
805,-0.9045,-0.152,0.5212,-0.5157,0.6234,-0.2105
806,-0.8717,-0.1327,0.5012,-0.4703,0.5184,-0.2012
807,-0.8876,-0.1074,0.4607,-0.3672,0.4844,-0.2534
808,-0.9658,-0.119,0.4878,-0.2341,0.5321,-0.0991
809,-0.9181,-0.1904,0.457,-0.2101,0.4684,0.0213
810,-0.8909,-0.1501,0.4218,-0.1547,0.4003,-0.0433
811,-0.89,-0.1565,0.4321,-0.2053,0.3052,-0.1549
812,-0.925,-0.1943,0.4336,-0.1169,0.3212,-0.1712
813,-0.973,-0.1836,0.4163,-0.1602,0.3654,-0.124
814,-0.9772,-0.167,0.4208,-0.2016,0.306,-0.1206
815,-0.9275,-0.1825,0.3739,-0.0023,0.1692,-0.0563
816,-0.9351,-0.1691,0.3903,0.0337,0.0138,-0.0497
817,-0.9093,-0.2001,0.3746,0.0557,-0.0891,-0.0758
818,-0.9276,-0.2045,0.3978,0.082,-0.1803,-0.059
819,-0.9045,-0.1951,0.3835,0.118,-0.2624,-0.0352
820,-0.8882,-0.1917,0.3757,0.0867,-0.3122,-0.0387
821,-0.9177,-0.21,0.42,0.1687,-0.3346,-0.0301
822,-0.9172,-0.2162,0.4036,0.096,-0.3146,-0.0695
823,-0.8907,-0.208,0.4148,0.0925,-0.4033,-0.0744
824,-0.9084,-0.2052,0.4614,0.1981,-0.4993,-0.0764
825,-0.8873,-0.222,0.4501,0.0947,-0.488,-0.1205
826,-0.9026,-0.1818,0.4785,0.1844,-0.502,-0.0465
827,-0.9091,-0.1989,0.5186,0.2748,-0.5972,-0.0185
828,-0.8661,-0.1779,0.495,0.0043,-0.5796,-0.1329
829,-0.8352,-0.2063,0.483,0.1952,-0.5655,-0.0494
830,-0.8878,-0.1663,0.5769,0.2177,-0.6434,-0.0228
831,-0.8885,-0.181,0.5607,0.1822,-0.7177,-0.0511
832,-0.8363,-0.2118,0.5369,0.157,-0.6905,-0.0712
833,-0.8557,-0.1876,0.6185,0.2027,-0.6995,-0.0391
834,-0.8223,-0.1869,0.6141,0.1662,-0.6695,-0.0134
835,-0.8007,-0.1771,0.6057,0.2947,-0.7024,0.0595
836,-0.7822,-0.1931,0.6434,0.4222,-0.7454,0.0622
837,-0.7843,-0.1755,0.6702,0.2861,-0.765,-0.0382
838,-0.764,-0.167,0.639,0.2285,-0.7228,-0.0767
839,-0.7261,-0.1421,0.6036,0.3391,-0.628,-0.0479
840,-0.7513,-0.2186,0.7179,0.5116,-0.6719,-0.0101
841,-0.7411,-0.1664,0.754,0.0192,-0.6463,-0.1904
842,-0.6907,-0.1671,0.6708,0.0939,-0.5276,-0.1113
843,-0.6919,-0.1176,0.6682,0.2146,-0.5161,-0.027
844,-0.7186,-0.132,0.7823,0.2033,-0.5459,-0.0019
845,-0.7133,-0.116,0.7687,0.0984,-0.5453,-0.0221
846,-0.6715,-0.1532,0.7156,0.2955,-0.5558,0.0824
847,-0.6958,-0.1584,0.7889,0.3577,-0.6433,0.0601
848,-0.726,-0.1127,0.8627,0.1228,-0.7827,-0.0887
849,-0.6611,-0.1511,0.7847,0.0252,-0.6933,-0.1274
850,-0.637,-0.1521,0.7548,0.1937,-0.6574,-0.1003
851,-0.6299,-0.1061,0.8085,0.3395,-0.7553,-0.0368
852,-0.6176,-0.099,0.8867,0.3676,-0.8232,-0.02
853,-0.5858,-0.1007,0.828,0.2027,-0.6983,-0.0782
854,-0.5604,-0.1094,0.7996,0.3164,-0.6957,-0.0181
855,-0.5658,-0.1011,0.8538,0.4216,-0.7069,0.0507
856,-0.5671,-0.085,0.9028,0.3164,-0.7469,-0.0216
857,-0.5009,-0.0868,0.8568,0.2628,-0.6439,-0.0041
858,-0.5369,-0.0924,0.9187,0.4056,-0.6631,0.0061
859,-0.5183,-0.075,0.9519,0.4674,-0.7802,-0.029
860,-0.4526,-0.0754,0.8779,0.2545,-0.7615,-0.1164
861,-0.4803,-0.0881,0.9059,0.3104,-0.6923,-0.0859
862,-0.4877,-0.0488,0.9772,0.3332,-0.8437,-0.069
863,-0.4142,-0.061,0.9202,0.271,-0.755,-0.1085
864,-0.3795,-0.0636,0.8914,0.2595,-0.6113,-0.0916
865,-0.4167,-0.0615,0.9652,0.443,-0.5695,-0.0511
866,-0.4186,-0.0415,1.0437,0.3646,-0.6933,-0.1029
867,-0.3737,-0.0151,0.9664,0.1601,-0.6201,-0.1302
868,-0.3182,-0.0194,0.9385,0.1293,-0.572,-0.1044
869,-0.3201,-0.0138,0.9896,0.2569,-0.5531,-0.1216
870,-0.3342,-0.02,1.0251,0.3581,-0.6972,-0.0746
871,-0.2898,-0.0354,0.9896,0.134,-0.586,-0.0904
872,-0.2637,-0.0188,0.9806,0.0877,-0.4206,-0.0872
873,-0.3126,0.0035,0.998,0.2529,-0.4292,-0.0242
874,-0.2885,0.0107,1.0221,0.2367,-0.5345,-0.0569
875,-0.262,-0.0048,1.0057,0.1499,-0.4976,-0.0527
876,-0.2773,-0.0062,0.998,0.1553,-0.4206,-0.0083
877,-0.26,0.0133,1.0288,0.0969,-0.4241,-0.0507
878,-0.2358,-0.011,1.0259,0.1453,-0.3984,-0.0575
879,-0.2267,-0.0055,1.0071,0.1989,-0.476,-0.0217
880,-0.1868,-0.027,0.964,0.0397,-0.4712,-0.0333
881,-0.2069,0.0094,1.0447,0.0509,-0.4951,-0.0445
882,-0.178,0.0461,1.0538,0.0897,-0.5434,-0.0168
883,-0.1542,0.0145,1.0266,0.0763,-0.5261,-0.1272
884,-0.1562,0.0299,1.0144,0.1057,-0.4453,-0.0848
885,-0.1661,0.0637,1.0327,0.178,-0.4194,-0.0161
886,-0.1564,0.0338,1.066,-0.1666,-0.7401,-0.1126
887,-0.1343,0.0376,1.0726,0.0076,-0.8105,-0.0479
888,-0.0829,0.0286,1.0281,-0.0196,-0.7292,-0.064
889,-0.0925,0.0059,1.0127,-0.112,-0.6337,-0.0473
890,-0.0883,0.021,1.0105,-0.1727,-0.7596,-0.0281
891,0.3475,0.1008,0.9252,-0.532,-0.7245,-0.1511
892,-0.037,-0.0126,1.0432,-0.1696,0.0385,-0.0142
893,-0.0815,-0.0356,1.0271,0.1461,-0.0081,0.0454
894,-0.0336,0.0112,1.0469,0.1099,-0.0081,-0.0057
895,-0.0316,0.0056,1.0382,0.0617,-0.0115,-0.0085
896,-0.0299,0.0012,1.0348,0.0346,-0.0053,-0.0095
897,-0.0308,0.0079,1.0371,0.018,-0.0044,-0.0189
898,-0.0325,0.0042,1.0367,0.0156,-0.0009,-0.0419
899,-0.033,0.0005,1.0364,0.0009,-0.0007,-0.0419
900,-0.0341,0.0037,1.0387,0.0001,-0.0021,-0.0305
901,-0.0298,0.0016,1.0365,0.0013,0.0,-0.0462
902,-0.0315,0.0049,1.0356,0.0043,0.0011,-0.0563
903,-0.0303,-0.0024,1.0332,0.0198,-0.0069,-0.0397
904,-0.0291,0.0027,1.0359,0.0119,-0.0041,-0.0383
905,-0.0352,0.009,1.0354,-0.018,0.0007,-0.0482
906,-0.031,-0.0022,1.0348,0.0071,-0.0044,-0.0483
907,-0.0302,-0.0007,1.0345,0.0119,-0.0033,-0.0421
908,-0.0359,0.0044,1.0399,-0.0028,-0.0031,-0.03
909,-0.0349,-0.0024,1.035,0.0226,-0.0085,-0.015
910,-0.0365,0.0009,1.0382,0.0184,-0.0075,0.0015
911,-0.0321,0.0087,1.04,-0.0341,0.0041,-0.0252
912,-0.0322,0.0035,1.0326,-0.0549,-0.0008,-0.1016
913,-0.0273,-0.0144,1.0388,-0.0067,-0.0025,-0.0867
914,-0.0315,-0.0002,1.0387,-0.017,-0.0043,-0.0852
915,-0.0345,0.0255,1.0405,0.0017,-0.0178,-0.079
916,-0.027,0.0432,1.0605,0.0967,-0.0288,-0.0555
917,-0.0426,0.0404,1.0659,0.0876,-0.1189,0.0716
918,-0.0159,0.0071,1.0487,0.0811,-0.177,0.1289
919,-0.0071,-0.0016,1.043,0.0218,-0.1888,0.1081
920,-0.0292,-0.0044,1.0721,0.0254,-0.2196,0.1286
921,-0.022,-0.0299,1.0702,0.0457,-0.3241,0.1245
922,-0.0085,-0.0219,1.0457,-0.0149,-0.3704,0.0486
923,0.028,0.0227,1.046,-0.1332,-0.3672,-0.0148
924,0.0437,0.0247,1.0371,-0.2138,-0.3719,0.0148
925,0.0354,-0.0078,1.011,-0.1919,-0.3278,0.0703
926,0.0404,-0.0393,1.0096,-0.1679,-0.2692,0.0562
927,0.051,-0.0291,1.0212,-0.0746,-0.1995,0.0316
928,0.0385,-0.0139,1.0905,-0.0551,-0.1884,0.0788
929,0.0526,-0.0193,1.0615,-0.1758,-0.2208,0.0515
930,0.059,-0.0221,1.0204,-0.0786,-0.1455,0.077
931,0.0858,-0.0225,1.0221,-0.0081,-0.0872,0.121
932,0.0477,-0.0148,1.0834,0.0302,-0.1419,0.1395
933,0.0737,-0.0006,1.0378,-0.0009,-0.2268,0.1204
934,0.0679,-0.0166,1.0203,0.0266,-0.1867,0.112
935,0.0577,-0.0046,1.0518,0.0495,-0.2515,0.1569
936,0.0719,-0.0073,1.0254,-0.0302,-0.282,0.1702
937,0.0951,-0.0316,1.0161,-0.0735,-0.2209,0.1069
938,0.0977,-0.0582,1.0464,0.0264,-0.2182,0.1197
939,0.1012,-0.0417,1.0413,0.1133,-0.2487,0.0999
940,0.1337,-0.0284,1.0162,0.1089,-0.2479,0.1146
941,0.1185,-0.0332,1.0203,0.1004,-0.2499,0.1395
942,0.1235,-0.0472,1.0568,0.0734,-0.3174,0.1308
943,0.1311,0.0043,1.0449,0.0399,-0.4145,0.1431
944,0.134,-0.0277,1.0077,0.0643,-0.4358,0.1676
945,0.1348,-0.0072,1.0426,0.0907,-0.4698,0.1178
946,0.1708,-0.0002,1.0204,0.0308,-0.5037,0.0944
947,0.166,-0.0192,0.9917,0.0595,-0.4393,0.1362
948,0.1876,-0.0181,0.9607,0.0831,-0.3667,0.147
949,0.2006,-0.0302,0.9668,0.0738,-0.3041,0.1128
950,0.2241,-0.0271,0.9985,0.0698,-0.3332,0.0519
951,0.1936,-0.0226,1.0461,0.1498,-0.4005,0.0618
952,0.2261,-0.0199,1.0034,0.1011,-0.5236,0.0924
953,0.2673,-0.0231,0.9795,0.0876,-0.467,0.0811
954,0.2516,0.0138,1.0485,0.0643,-0.4808,0.0615
955,0.2653,0.0062,1.0316,0.1443,-0.5715,0.1007
956,0.2898,-0.0018,1.0018,0.0912,-0.5953,0.0877
957,0.2859,-0.0186,1.0072,0.1393,-0.5688,0.1033
958,0.3082,0.024,1.0074,0.1756,-0.6189,0.1065
959,0.3081,0.0319,0.9624,0.282,-0.6369,0.1233
960,0.3207,-0.005,0.9271,0.3907,-0.5688,0.1138
961,0.3292,0.0422,0.9495,0.2782,-0.6023,0.1158
962,0.3438,0.0276,0.936,0.0421,-0.5513,0.1622
963,0.3533,0.0033,0.9497,0.0153,-0.4776,0.1419
964,0.3883,-0.0044,0.928,0.1385,-0.4144,0.1493
965,0.3846,-0.0092,0.9821,0.1932,-0.4106,0.0786
966,0.3929,0.0092,1.01,0.233,-0.604,0.0852
967,0.4436,0.0221,0.9801,0.1835,-0.7351,0.1325
968,0.4539,0.0446,0.9688,0.2394,-0.7588,0.1103
969,0.4656,0.0496,0.9757,0.2007,-0.7654,0.1084
970,0.4705,0.0635,0.9531,0.1933,-0.7833,0.1493
971,0.4772,0.0603,0.9197,0.2903,-0.7747,0.1822
972,0.4843,0.0625,0.8842,0.3105,-0.7835,0.1318
973,0.4962,0.0272,0.8894,0.2208,-0.7991,0.025
974,0.53,0.0497,0.8444,0.2374,-0.8919,0.086
975,0.5519,0.0331,0.8263,0.2751,-0.8952,0.1262
976,0.5437,0.0449,0.884,0.3475,-1.0542,0.136
977,0.5759,0.0734,0.8055,0.3439,-1.1623,0.1601
978,0.6265,0.0398,0.748,0.1979,-1.1114,0.067
979,0.641,0.1171,0.7963,0.0794,-1.141,0.2543
980,0.6765,0.1375,0.7155,0.0619,-1.0947,0.3402
981,0.6835,0.0823,0.6685,0.2738,-0.9554,0.2738
982,0.6543,0.0045,0.7489,0.2164,-0.9544,0.2461
983,0.6835,0.0347,0.6865,0.0909,-0.9807,0.2607
984,0.7346,0.0226,0.6655,0.0883,-0.8146,0.0899
985,0.7212,0.0211,0.7455,0.2092,-0.8744,0.0707
986,0.7863,0.0654,0.6285,0.2686,-0.9679,0.1148
987,0.8191,0.045,0.5654,0.1716,-0.9551,0.1931
988,0.8019,-0.0017,0.578,0.0675,-0.8686,0.0991
989,0.8479,0.0383,0.5837,0.1711,-0.8455,0.1228
990,0.8083,0.0532,0.5773,0.1634,-0.8462,0.1759
991,0.8472,0.0579,0.545,0.0589,-0.8595,0.1462
992,0.8279,0.05,0.5607,0.0541,-0.8451,0.1145
993,0.8282,0.0958,0.5366,0.0269,-0.9277,0.151
994,0.8457,0.059,0.4735,0.117,-0.8917,-0.0285
995,0.9097,0.0363,0.4246,0.1778,-0.8357,0.0533
996,0.8739,0.0366,0.4213,0.0921,-0.8144,0.232
997,0.9225,-0.0101,0.3673,-0.0059,-0.8363,0.2549
998,0.8962,-0.005,0.3483,-0.0876,-0.7897,0.3264
999,0.8784,0.0149,0.3749,-0.0971,-0.784,0.2798
1000,0.8881,0.0046,0.3843,0.0228,-0.8371,0.2599
1001,0.847,0.0082,0.3759,0.0266,-0.8694,0.2944
1002,0.8748,0.0275,0.3571,0.0125,-1.0257,0.2562
1003,0.9425,-0.0001,0.24,0.1128,-0.9762,0.1218
1004,0.9033,-0.0419,0.2906,0.1816,-0.9294,0.0735
1005,0.9703,-0.0406,0.1949,0.1202,-1.031,0.0748
1006,1.0494,-0.0615,0.0807,-0.0057,-0.8619,0.1068
1007,0.9352,-0.0677,0.2202,-0.0683,-0.7751,0.172
1008,0.9526,-0.0027,0.1744,-0.1174,-0.9144,0.2571
1009,0.9719,-0.0238,0.0466,-0.0117,-0.8189,0.3112
1010,0.9117,-0.0868,0.095,-0.1417,-0.7888,0.1565
1011,0.897,-0.068,0.1484,0.0707,-0.9048,0.1382
1012,0.9392,-0.0121,0.0376,0.0434,-0.9229,0.0995
1013,0.9711,-0.0032,0.0134,0.1055,-0.7138,0.0116
1014,0.9481,-0.0248,0.0227,0.1161,-0.5277,-0.0579
1015,0.9512,-0.022,0.0046,0.0366,-0.5086,-0.0782
1016,0.9829,-0.0226,-0.0242,0.0856,-0.4554,-0.039
1017,1.0067,-0.0398,-0.0635,0.0522,-0.3181,-0.0494
1018,0.98,-0.0479,-0.0537,0.0497,-0.1907,-0.0072
1019,0.9889,-0.0383,-0.0718,-0.0487,-0.0746,0.0228
1020,1.0035,-0.0024,-0.0743,-0.1422,0.0772,0.0309
1021,0.9946,-0.0579,-0.0637,-0.1655,0.2683,0.0322
1022,0.9633,-0.0488,0.0077,-0.1779,0.329,0.0003
1023,0.9716,-0.0065,0.0184,-0.1716,0.3241,0.0088
1024,0.988,-0.0302,-0.0142,-0.17,0.4117,0.0041
1025,0.9452,-0.0658,0.0221,-0.1293,0.4929,-0.0682
1026,0.9543,-0.0219,0.0237,-0.1671,0.4851,-0.0892
1027,0.9758,-0.0493,-0.0294,-0.1505,0.5959,-0.0551
1028,0.9418,-0.067,0.0417,-0.2025,0.6895,-0.0871
1029,0.9321,-0.0468,0.0931,-0.2228,0.6755,-0.1148
1030,0.958,-0.0178,0.0979,-0.267,0.6586,-0.1453
1031,0.9536,-0.0156,0.1206,-0.2466,0.6626,-0.0873
1032,0.9299,-0.0265,0.1583,-0.2478,0.6584,-0.1041
1033,0.941,-0.002,0.1785,-0.2133,0.63,-0.1145
1034,0.9742,-0.0187,0.1768,-0.1583,0.6531,-0.0823
1035,0.9653,-0.0164,0.2153,-0.2088,0.6643,-0.0783
1036,0.9507,-0.0229,0.2614,-0.2616,0.6177,-0.0624
1037,0.9308,-0.0166,0.3005,-0.1875,0.5154,-0.0635
1038,0.9718,-0.001,0.2506,-0.2238,0.4274,-0.0708
1039,0.9578,-0.0302,0.2593,-0.1125,0.443,-0.0756
1040,0.9396,-0.0391,0.3007,-0.0896,0.4029,-0.0885
1041,0.9714,-0.0402,0.2462,-0.1356,0.3931,-0.0947
1042,0.9403,-0.0284,0.2856,-0.1648,0.4343,-0.116
1043,0.9181,-0.0107,0.3489,-0.1458,0.4025,-0.0985
1044,0.9287,0.0087,0.3348,-0.1061,0.3646,-0.0565
1045,0.9314,0.011,0.3016,-0.1093,0.4189,-0.0915
1046,0.9121,-0.0122,0.3383,-0.115,0.5093,-0.0368
1047,0.8938,0.0018,0.3572,-0.063,0.515,-0.0004
1048,0.8887,-0.0093,0.3662,-0.0734,0.5104,-0.0513
1049,0.8763,-0.0034,0.371,0.0202,0.5441,-0.0278
1050,0.8892,-0.0156,0.3575,0.1473,0.607,-0.0603
1051,0.884,-0.05,0.3628,0.206,0.6792,-0.167
1052,0.8925,-0.0426,0.399,0.219,0.6774,-0.2427
1053,0.9012,-0.0052,0.412,0.0409,0.665,-0.2312
1054,0.8859,0.0161,0.4347,-0.0362,0.6632,-0.153
1055,0.8538,0.0225,0.4957,-0.0218,0.6359,-0.0979
1056,0.8408,0.0256,0.4889,-0.0312,0.5941,-0.1021
1057,0.8357,0.0468,0.4597,-0.1061,0.617,-0.1138
1058,0.8289,0.0308,0.4972,-0.076,0.6738,-0.0925
1059,0.8241,0.0205,0.5238,-0.0688,0.6916,-0.1591
1060,0.8315,0.037,0.506,-0.0401,0.7343,-0.2114
1061,0.7874,0.0305,0.5507,0.059,0.7734,-0.1465
1062,0.8073,0.0309,0.5607,0.0832,0.7439,-0.1763
1063,0.8098,0.0229,0.5906,0.0836,0.7132,-0.2068
1064,0.8069,0.0447,0.6274,-0.0352,0.6767,-0.2116
1065,0.7683,0.0723,0.6425,-0.1814,0.6308,-0.2377
1066,0.7714,0.0913,0.6282,-0.2523,0.6727,-0.2053
1067,0.7408,0.0543,0.6244,-0.0334,0.8405,-0.1742
1068,0.7228,0.021,0.6298,-0.0406,0.9268,-0.2581
1069,0.7344,0.0428,0.6294,-0.1064,0.9903,-0.2935
1070,0.6919,0.0361,0.6787,-0.1691,1.029,-0.3162
1071,0.661,0.0541,0.6864,-0.2767,1.0369,-0.3071
1072,0.6511,0.0901,0.7506,-0.3792,1.0291,-0.326
1073,0.6935,0.1056,0.7477,-0.3435,0.9493,-0.1889
1074,0.64,0.0453,0.7998,-0.1244,0.9903,-0.0812
1075,0.5823,0.0055,0.8254,-0.1808,0.9126,-0.0662
1076,0.5813,0.0067,0.8104,-0.2888,0.7963,-0.0566
1077,0.5541,0.0177,0.8375,-0.1682,0.8379,-0.0389
1078,0.5234,0.049,0.8328,-0.1799,0.8747,-0.0977
1079,0.5245,0.0493,0.804,-0.1069,0.9535,-0.1513
1080,0.4913,0.0615,0.8933,0.0754,1.0383,-0.2092
1081,0.496,0.0496,0.855,0.1294,1.0559,-0.2245
1082,0.4829,0.0244,0.8412,-0.0091,1.151,-0.2465
1083,0.428,0.0416,0.9344,-0.1138,1.1586,-0.2431
1084,0.4187,0.0864,0.9614,-0.1566,1.1568,-0.2362
1085,0.4155,0.1045,0.9531,-0.183,1.1913,-0.1491
1086,0.3893,0.0546,0.9844,-0.1949,1.2382,-0.1294
1087,0.3168,0.0072,1.0503,-0.2032,1.108,-0.1422
1088,0.3042,0.0166,1.007,-0.2204,0.9824,-0.159
1089,0.2965,0.012,0.9747,-0.129,1.0884,-0.1815
1090,0.2585,0.0601,1.0361,-0.0324,1.1017,-0.2438
1091,0.2255,0.0408,1.0566,-0.1274,0.9485,-0.2268
1092,0.2142,0.049,0.9905,-0.3169,0.8639,-0.1884
1093,0.1554,0.0013,1.0006,-0.3193,0.851,-0.1975
1094,0.127,0.0074,1.027,-0.037,0.7837,-0.2052
1095,0.1462,0.0251,0.9998,0.0342,0.7615,-0.2138
1096,0.1066,0.0575,1.0319,-0.1961,0.7158,-0.2306
1097,0.1053,0.0037,1.0085,-0.313,0.7012,-0.2261
1098,0.0549,0.0314,1.08,-0.1858,0.6224,-0.1586
1099,0.0648,0.0,1.0737,-0.1828,0.545,-0.1409
1100,0.0394,0.0227,1.0703,-0.0638,0.5545,-0.1405
1101,0.0231,0.0226,1.103,-0.0221,0.4884,-0.1285
1102,0.0588,-0.0323,1.0367,-0.188,0.451,-0.1305
1103,0.0027,0.0103,1.0522,-0.1463,0.4578,-0.1024
1104,-0.0056,0.0267,1.0721,-0.1357,0.3592,-0.0791
1105,-0.0128,0.0065,1.0461,-0.0501,0.3057,-0.0579
1106,-0.0066,0.0154,1.0502,0.0643,0.2378,0.0623
1107,-0.0021,-0.0017,1.0077,0.0252,0.2352,0.1044
1108,-0.0112,-0.0364,1.035,-0.2016,0.1971,0.0605
1109,-0.0184,-0.0342,1.073,-0.3577,0.0903,-0.0403
1110,-0.0239,-0.0491,1.0453,-0.1414,0.1513,-0.0374
1111,-0.0326,-0.0507,1.0173,0.0285,0.1885,-0.0123
1112,-0.0437,-0.0165,1.0134,-0.0838,0.2065,-0.0421
1113,0.1378,0.0913,0.9954,0.4505,-0.1714,0.1609
1114,-0.025,-0.0178,1.0555,0.3286,-0.0561,0.1316
1115,-0.028,0.0125,1.052,0.0843,-0.0676,0.134
1116,-0.0266,-0.0238,1.0264,0.028,0.0079,0.0324
1117,-0.0322,-0.0121,1.0286,0.2361,0.0165,0.0137
1118,-0.0526,0.0579,1.0798,0.2941,-0.0032,0.0546
1119,-0.025,0.0128,1.0481,0.0554,-0.0157,0.0687
1120,-0.0303,-0.0128,1.0387,0.0204,0.0004,0.1234
1121,-0.037,0.0261,1.043,0.0153,-0.0009,0.1083
1122,-0.0348,0.0133,1.0441,0.0045,-0.0015,0.0113
1123,-0.0339,0.0045,1.0378,0.0065,-0.0021,-0.0029
1124,-0.0287,0.0023,1.0421,0.0111,-0.0041,-0.0023
1125,-0.0319,0.0071,1.0403,0.0092,-0.0013,-0.0032
1126,-0.0303,0.0072,1.041,0.0065,-0.0028,-0.0063
1127,-0.0277,0.0001,1.0349,0.0093,-0.0005,-0.0161
1128,-0.0342,0.0073,1.0391,0.0064,-0.0019,-0.0134
1129,-0.0321,0.0055,1.0387,0.0079,-0.0007,-0.0061
1130,-0.0302,0.0059,1.0411,0.0067,-0.0007,-0.0072
1131,-0.0312,0.0067,1.0411,0.0071,-0.0043,-0.0052
1132,-0.0356,0.0089,1.0409,0.0117,-0.0039,-0.0031
1133,-0.0336,0.0095,1.0416,0.0124,-0.0041,-0.0031
1134,-0.0303,0.0072,1.0406,0.0085,-0.0036,-0.0028
1135,-0.0328,0.0071,1.0439,0.0089,-0.0047,-0.0025
1136,-0.0321,0.0054,1.0396,0.0084,-0.0031,0.0003
1137,-0.0328,0.005,1.045,0.0089,-0.0019,-0.0013
1138,-0.0303,0.0033,1.0365,0.0121,-0.0032,-0.0001
1139,-0.0309,0.0034,1.0389,0.0103,-0.0021,-0.0033
1140,-0.032,0.0051,1.0361,0.0053,-0.0024,0.0005
1141,-0.0328,0.0071,1.0425,0.0069,0.0019,-0.0004
1142,-0.0309,0.0077,1.0377,-0.0073,0.0011,0.0
1143,-0.0282,0.0046,1.0372,-0.0162,-0.0005,0.0029
1144,-0.0322,-0.0037,1.0321,0.0065,-0.0028,0.0096
1145,-0.0322,0.0057,1.0375,0.0165,-0.0061,0.0047
1146,-0.0291,0.0016,1.0327,-0.008,-0.0037,0.0049
1147,-0.0314,0.0035,1.037,0.025,-0.0045,0.0081
1148,-0.0295,0.0067,1.0354,0.0107,-0.0028,0.0071
1149,-0.028,0.0071,1.0376,0.0007,-0.0015,0.0248
1150,-0.0334,0.0021,1.0326,0.0154,-0.0043,0.0477
1151,-0.0322,0.002,1.035,0.0069,-0.0008,0.0245
1152,-0.0321,0.011,1.0386,-0.018,-0.0005,0.024
1153,-0.0364,0.0056,1.0334,-0.0248,0.0019,-0.0258
1154,-0.0284,-0.0125,1.0348,0.006,-0.0021,-0.01
1155,-0.0334,-0.0006,1.0354,0.0268,-0.0075,0.0206
1156,-0.0283,0.0035,1.037,0.0017,-0.0047,0.0212
1157,-0.0363,-0.0021,1.0349,-0.0237,-0.0023,0.0401
1158,-0.0332,-0.0007,1.0334,0.0177,-0.0092,0.0411
1159,-0.027,-0.0107,1.0382,-0.0067,-0.002,0.0134
1160,-0.0271,-0.0077,1.0315,0.0237,-0.0013,0.0092
1161,-0.0292,-0.0033,1.0378,0.0281,-0.0019,0.0126
1162,-0.0332,0.0619,1.0388,0.0545,-0.0084,0.102
1163,-0.0293,-0.0034,1.0465,0.0154,-0.0125,0.2811
1164,-0.0087,-0.0349,1.0559,0.0758,-0.0146,0.5019
1165,-0.0767,-0.1884,1.0487,-0.0091,-0.0113,0.031
1166,-0.0222,0.0692,1.0334,0.0578,-0.0093,0.2249
1167,-0.0516,0.0121,1.0371,0.0091,0.0017,0.0125
1168,-0.0842,-0.007,1.0371,-0.0292,-0.0005,0.0619
1169,-0.0875,0.0665,1.0217,0.0282,0.0001,0.1939
1170,-0.0099,-0.0417,1.0444,-0.0498,-0.0057,0.2258
1171,-0.0081,-0.0344,1.0427,0.0141,-0.0105,0.3983
1172,-0.0212,0.0165,1.0461,-0.0084,-0.0153,0.5177
1173,-0.0481,-0.0015,1.0605,0.0573,-0.018,0.4577
1174,-0.0256,0.0182,1.0731,0.0017,-0.0322,0.3059
1175,-0.0699,0.0298,1.0399,-0.0403,-0.0491,0.5795
1176,-0.0411,0.0514,1.0692,-0.2133,-0.085,0.516
1177,-0.0013,-0.017,1.056,-0.171,-0.1298,0.5497
1178,-0.0446,0.0006,1.0587,-0.1565,-0.1333,0.7076
1179,-0.0242,0.0197,1.025,-0.1039,-0.008,0.7321
1180,-0.0253,-0.0273,1.0043,-0.1349,0.2044,0.7985
1181,-0.0426,-0.069,1.0544,0.0258,0.1795,0.884
1182,-0.0551,-0.0278,1.0387,0.076,0.1096,0.9146
1183,-0.0701,-0.024,1.0747,0.0659,0.0385,0.8774
1184,-0.0577,-0.0095,1.074,-0.0812,-0.031,0.7888
1185,-0.03,-0.0245,1.1086,-0.131,-0.0904,0.9578
1186,-0.0581,0.0109,1.0851,-0.0445,-0.1491,1.1939
1187,-0.0609,-0.0216,1.0339,0.0614,-0.0273,0.9888
1188,-0.0531,-0.0352,1.0065,-0.0955,0.0266,0.8805
1189,-0.049,-0.0393,1.0116,-0.3421,-0.0859,0.7897
1190,-0.0259,0.0551,1.0675,-0.1063,-0.1313,0.9345
1191,-0.0499,-0.0283,1.0172,0.1274,-0.1005,0.9319
1192,-0.0378,-0.0356,1.0021,0.1367,-0.2032,0.9242
1193,-0.0194,-0.0518,0.9803,-0.0218,-0.2196,0.9345
1194,-0.0173,0.0369,1.0221,-0.1065,-0.0799,0.9178
1195,-0.0225,-0.0587,1.0466,0.0427,-0.0774,0.8901
1196,-0.0405,-0.1011,1.0076,0.1527,-0.1177,0.9845
1197,0.0319,-0.0015,1.0371,-0.0152,-0.0742,0.8903
1198,-0.0361,0.0243,1.0676,-0.3718,-0.0126,0.733
1199,-0.0375,-0.0563,1.093,-0.1949,-0.1346,0.7438
1200,-0.015,-0.11,1.0914,-0.0069,-0.1683,0.8534
1201,-0.0344,-0.0459,1.1089,0.0285,-0.2495,0.9664
1202,0.0671,-0.0417,1.0536,0.0442,-0.2121,1.0354
1203,0.0359,-0.0043,1.027,0.1052,-0.0961,1.0238
1204,0.0161,-0.0621,1.0184,-0.0389,-0.0738,0.9523
1205,0.0149,-0.0548,1.017,-0.1553,-0.1367,0.9708
1206,0.0071,-0.0361,1.0079,-0.0975,-0.1507,1.0031
1207,-0.0044,-0.0367,1.0641,0.0909,-0.1706,1.0619
1208,-0.0437,-0.0686,1.072,0.1005,-0.257,0.9672
1209,-0.0002,-0.0208,1.0752,0.0095,-0.104,0.9913
1210,-0.0538,-0.0287,1.0417,0.082,0.047,1.0945
1211,-0.0345,-0.0662,0.9813,0.1631,-0.0538,1.0044
1212,-0.0026,-0.0829,0.9043,0.4357,-0.106,1.0687
1213,0.0214,0.0068,1.0127,0.221,-0.0964,1.0812
1214,0.0398,-0.0055,1.0444,0.0232,-0.0249,1.0085
1215,0.0544,-0.0487,0.9731,-0.1379,0.1322,0.9779
1216,0.0188,-0.1145,0.9346,-0.1386,0.3417,0.8678
1217,0.0334,-0.0613,1.0176,-0.125,0.366,0.8294
1218,-0.0222,-0.0975,1.0214,-0.1165,0.3304,0.8955
1219,-0.0504,-0.1211,1.0474,-0.2096,0.1907,0.8174
1220,-0.0304,-0.0743,1.1118,-0.1185,0.1858,0.7865
1221,-0.0474,-0.0665,1.0632,0.0529,-0.0646,0.8815
1222,-0.0168,-0.0651,1.0027,0.2093,-0.3184,0.9924
1223,-0.0411,-0.0297,1.0405,0.0763,-0.2173,0.8714
1224,-0.0035,-0.0157,1.0223,0.0872,-0.4551,0.8174
1225,-0.0144,-0.0609,1.0453,0.1808,-0.2676,0.8927
1226,0.0056,-0.0436,1.0347,0.1363,-0.1136,0.9754
1227,0.0289,-0.0123,1.0033,0.0521,-0.178,0.8534
1228,0.0355,0.0382,1.0104,-0.178,0.1189,0.8478
1229,0.0168,-0.0581,0.9501,-0.2823,0.1758,0.9074
1230,-0.0128,-0.0609,1.0188,-0.0724,0.0983,0.8564
1231,-0.0487,-0.0245,1.0891,-0.0889,0.0473,0.8514
1232,-0.1075,-0.0695,1.0864,-0.094,0.0181,0.6909
1233,-0.0901,-0.1071,1.0978,-0.0186,-0.155,0.5184
1234,-0.0499,-0.016,1.0778,0.2379,-0.1796,0.4188
1235,-0.0022,-0.0217,1.2693,0.4762,-0.4007,0.3578
1236,0.051,-0.0176,1.2072,0.528,-0.4949,0.2258
1237,0.0824,-0.0739,0.9189,0.1656,-0.1495,0.0246
1238,0.0664,-0.1282,0.9424,0.0296,0.1244,-0.1716
1239,0.0419,-0.0967,0.9261,0.0067,0.2357,-0.2877
1240,-0.0208,-0.132,0.9442,-0.2816,0.4101,-0.4501
1241,0.0334,-0.1438,0.9839,-0.1097,0.3206,-0.4566
1242,0.0385,-0.0348,1.0292,0.0565,0.119,-0.3985
1243,0.0372,0.0073,1.028,-0.0976,0.07,-0.5501
1244,0.0068,-0.0209,1.0337,-0.0996,0.1254,-0.5638
1245,-0.005,-0.0286,1.0339,-0.0278,0.1024,-0.5122
1246,-0.0519,-0.0811,1.0529,-0.0322,0.1197,-0.5429
1247,-0.0654,-0.0408,1.115,-0.0325,0.0566,-0.4652
1248,-0.007,-0.033,1.0089,-0.0888,0.0755,-0.3883
1249,-0.0011,-0.0834,1.0336,-0.0206,0.1722,-0.3658
1250,-0.0569,-0.0242,1.1083,0.3505,-0.0112,-0.3786
1251,-0.0269,0.0183,1.015,0.251,0.006,-0.4079
1252,-0.0198,-0.0254,0.98,0.1208,0.0811,-0.5666
1253,-0.0375,-0.0671,1.0476,0.1965,-0.0336,-0.6238
1254,-0.0476,-0.0249,1.0494,0.0917,0.051,-0.6192
1255,-0.0037,-0.0338,1.0106,0.0176,0.1363,-0.6057
1256,-0.0356,-0.0707,1.0319,0.1509,-0.0387,-0.5703
1257,-0.0356,-0.0316,1.0453,0.0433,-0.1498,-0.5967
1258,-0.0558,0.0402,1.0475,0.0177,0.1015,-0.7253
1259,-0.0566,-0.0509,1.0746,0.2638,-0.0312,-0.7688
1260,-0.0201,-0.0238,1.0616,0.1547,-0.3085,-0.5811
1261,-0.0459,0.0594,1.0743,-0.0225,-0.036,-0.874
1262,0.0172,-0.0544,0.9062,-0.3254,0.2134,-0.9915
1263,-0.0088,-0.0969,1.0131,-0.2776,0.3029,-1.0048
1264,-0.0493,-0.0747,1.0469,0.1607,0.1108,-0.8202
1265,-0.0691,0.0348,1.0304,0.2079,0.0083,-0.696
1266,-0.0367,-0.0262,1.014,0.1726,0.0214,-0.7792
1267,-0.0322,-0.0608,1.0475,-0.0321,-0.1594,-0.7763
1268,-0.0643,0.0121,1.1266,0.2503,-0.1792,-0.7205
1269,-0.0608,0.0485,1.0369,0.329,-0.0795,-0.7594
1270,-0.0006,-0.0701,0.999,0.2707,-0.053,-0.7989
1271,-0.0165,-0.0197,1.0367,-0.0742,-0.0941,-0.8222
1272,-0.0363,0.0582,1.0487,-0.0368,-0.1077,-0.9343
1273,-0.0139,-0.054,1.041,0.0471,-0.0075,-0.757
1274,-0.0365,0.0226,1.0656,-0.3004,-0.0067,-0.8256
1275,0.0107,-0.0271,1.004,-0.3308,-0.1971,-0.8411
1276,-0.0675,-0.02,0.9685,-0.1431,-0.081,-0.91
1277,0.0118,-0.1248,1.0065,-0.1382,0.1105,-1.0164
1278,-0.0459,0.0005,1.0569,-0.1265,0.0908,-0.9513
1279,-0.0243,-0.0048,1.0824,-0.0059,0.1324,-0.9628
1280,-0.0082,-0.0149,1.0406,-0.0077,0.1221,-1.0664
1281,-0.0211,-0.1169,1.0282,-0.0989,-0.0957,-1.0523
1282,0.0081,-0.0271,1.0107,-0.1268,-0.1439,-1.0956
1283,0.0143,0.0587,1.0536,0.0174,0.2162,-1.1702
1284,0.0502,-0.1096,1.0232,0.2474,0.3498,-1.1861
1285,0.0254,-0.0046,0.9814,-0.2586,0.2627,-1.0248
1286,-0.0167,0.0305,1.0231,-0.318,0.2859,-0.9788
1287,-0.0652,0.0405,1.0474,-0.1606,0.3567,-0.9739
1288,-0.0732,-0.0754,1.0161,-0.1522,0.3589,-1.0025
1289,-0.0564,-0.0525,1.0198,-0.2209,0.1184,-0.9827
1290,-0.056,0.0065,1.0436,-0.0651,0.1471,-0.9366
1291,-0.0447,-0.0453,1.0482,0.0246,0.4787,-0.9491
1292,-0.0752,-0.052,1.088,0.0965,0.3684,-0.9466
1293,-0.0729,-0.0697,1.0765,-0.0748,0.1294,-0.9475
1294,-0.0442,-0.0674,1.0592,-0.0308,0.133,-0.8899
1295,-0.0571,-0.0538,1.0114,0.0624,0.2092,-0.8531
1296,-0.0933,-0.0282,1.0248,0.3892,0.1694,-0.8252
1297,-0.0924,-0.0447,0.9967,0.409,0.0358,-0.7001
1298,-0.0796,0.0138,0.9659,0.1031,0.0587,-0.5703
1299,-0.0236,0.162,1.0544,0.3301,-0.3172,-0.4803
1300,-0.1006,-0.0322,1.0001,0.3988,-0.306,-0.5036
1301,-0.0922,-0.011,1.03,0.4019,-0.3495,-0.3181
1302,-0.0861,-0.0034,1.0343,0.1851,-0.4671,-0.2814
1303,-0.1002,-0.0051,1.0146,0.0626,-0.6852,-0.261
1304,-0.0992,0.0275,1.038,0.1984,-0.0105,-0.1332
1305,-0.1187,-0.0046,1.0614,0.1614,-0.0181,-0.0138
1306,0.0029,0.0109,1.0397,0.002,0.0021,-0.0142
1307,-0.0209,0.0054,1.0472,0.0121,0.002,-0.0284
1308,-0.0299,0.0073,1.0375,0.0212,0.0015,-0.0027
1309,-0.0286,0.0095,1.041,0.0218,0.0025,0.0003
1310,-0.0343,0.0081,1.036,0.0158,0.0009,-0.0101
1311,-0.0311,0.0084,1.0438,0.0093,-0.0051,-0.0053
1312,-0.0299,0.0092,1.0339,0.0041,-0.0063,-0.0023
1313,-0.0266,0.0139,1.0381,0.0059,-0.0012,0.0111
1314,-0.0264,0.0156,1.0354,0.0093,0.0025,0.0441
1315,-0.033,0.0076,1.0421,-0.0007,0.0003,0.0459
1316,-0.036,0.0048,1.032,0.0234,-0.0037,-0.0027
1317,-0.0293,0.0073,1.0375,0.017,-0.0028,-0.0032
1318,-0.0311,0.0043,1.0376,0.008,-0.0015,-0.0126
1319,-0.0272,0.0033,1.0372,0.0137,-0.0011,-0.0091
1320,-0.031,0.009,1.0354,0.006,-0.0057,-0.0015
1321,-0.0299,0.0083,1.0347,-0.0012,-0.0041,0.0
1322,-0.033,0.0017,1.0299,0.008,-0.0045,0.0035
1323,-0.0281,0.0055,1.0328,0.0186,-0.0032,-0.0015
1324,-0.0287,0.0087,1.0349,0.0092,-0.0015,-0.0037
1325,-0.0265,0.0066,1.0347,0.0049,-0.0041,0.0
1326,-0.0275,0.0104,1.0345,0.0015,-0.0059,0.0093
1327,-0.03,0.0042,1.0354,-0.0012,-0.0012,0.0132
1328,-0.0294,0.0066,1.0358,0.013,-0.0023,0.0004
1329,-0.0278,0.009,1.0389,-0.0007,-0.0016,0.0048
1330,-0.0291,0.0035,1.0367,-0.0136,-0.0008,0.0119
1331,-0.0299,0.0093,1.0387,0.0013,0.0003,0.0105
1332,-0.03,0.001,1.0342,0.0111,-0.0035,0.0068
1333,-0.03,0.0037,1.0315,0.0111,-0.002,-0.0012
1334,-0.0266,0.0099,1.0383,0.0158,-0.0032,-0.0065
1335,-0.0287,0.0104,1.0404,0.0076,0.0016,-0.0027
1336,-0.0342,0.0092,1.0419,0.0021,0.0017,-0.0076
1337,-0.0295,0.0017,1.0398,-0.004,-0.0039,0.0084
1338,-0.0315,0.0051,1.0385,0.0196,-0.0052,0.0573
1339,-0.03,0.0103,1.0333,0.0023,-0.0004,0.0005
1340,-0.0284,0.0052,1.0396,-0.0089,0.0023,0.0051
1341,-0.0286,0.0067,1.0393,0.0117,-0.0064,0.0462
1342,-0.0378,0.0062,1.0372,-0.0212,-0.0064,-0.0025
1343,-0.0283,-0.0079,1.0366,-0.0305,-0.0071,-0.0268
1344,-0.0502,-0.0554,1.0464,0.0012,-0.0057,-0.0473
1345,-0.0497,-0.0266,1.0422,-0.0451,-0.0039,-0.0613
1346,-0.0072,-0.0121,1.0488,-0.0911,-0.0041,-0.0933
1347,-0.0391,-0.0286,1.0686,-0.2067,0.03,-0.2292
1348,-0.0258,-0.033,1.0751,-0.1579,0.0172,-0.2752
1349,-0.0358,0.0132,1.0914,-0.0944,0.0402,-0.2834
1350,-0.0255,-0.0105,1.0858,-0.088,0.0923,-0.3393
1351,-0.0442,-0.048,1.0288,-0.0671,0.1246,-0.3935
1352,-0.0377,0.0175,1.0453,-0.0044,0.1437,-0.5008
1353,-0.0472,-0.0195,1.0707,-0.0236,0.0638,-0.6067
1354,-0.0428,-0.0322,1.0306,-0.037,-0.0004,-0.6915
1355,-0.0337,0.0042,1.0378,0.1076,-0.0405,-0.7276
1356,-0.0558,0.012,1.0248,0.057,-0.0787,-0.7951
1357,-0.0421,-0.0778,1.0286,-0.0593,-0.132,-0.8824
1358,-0.0374,-0.0076,1.0125,-0.1658,-0.0684,-0.9521
1359,-0.0371,0.0298,0.9884,-0.1832,0.1044,-1.0104
1360,-0.0433,-0.1079,1.0641,-0.1828,0.0601,-1.0042
1361,-0.0309,-0.0374,1.0482,-0.2494,-0.0735,-0.9723
1362,-0.0663,-0.022,1.0305,-0.213,-0.0168,-0.943
1363,-0.0355,-0.1943,1.0331,-0.1999,-0.0614,-1.0658
1364,-0.0271,-0.0459,1.0453,-0.0308,-0.0991,-0.9335
1365,-0.0082,0.0509,1.0331,0.0281,0.0029,-0.9947
1366,-0.0266,-0.0895,1.0131,-0.0723,0.1024,-0.9943
1367,-0.0107,-0.0773,1.0238,-0.1905,0.0743,-1.0016
1368,-0.0243,-0.0267,1.017,-0.1104,0.0676,-0.9172
1369,-0.0765,-0.1494,1.0074,-0.131,0.0929,-1.1196
1370,-0.0105,-0.1156,1.0182,-0.1153,-0.0819,-1.1956
1371,0.0392,-0.0739,0.9781,-0.1148,-0.1382,-1.167
1372,-0.0111,-0.0867,1.0056,-0.1076,-0.0589,-1.0592
1373,0.0114,-0.0493,1.0122,-0.0963,-0.0216,-1.069
1374,-0.0149,-0.191,1.033,-0.1369,0.0099,-1.2202
1375,-0.0481,-0.1606,1.0406,-0.0551,-0.0722,-1.2615
1376,0.0074,-0.0468,1.0345,0.0119,-0.0852,-1.4017
1377,-0.0282,-0.05,1.0548,0.1718,-0.1956,-1.3041
1378,-0.0267,-0.0627,1.0024,-0.0265,-0.1722,-1.2666
1379,0.0367,-0.0555,0.9939,0.1156,-0.0876,-1.1924
1380,-0.0344,-0.1072,1.014,0.2017,0.0863,-1.2614
1381,-0.0166,-0.0964,1.0751,0.4269,0.068,-1.2564
1382,0.0659,-0.0684,1.0868,0.2406,-0.1004,-1.1266
1383,0.0253,-0.0842,1.0835,0.0162,-0.0952,-1.1248
1384,0.058,-0.0352,1.0565,0.1675,-0.1044,-0.9306
1385,-0.0002,-0.0753,1.0837,0.0334,-0.2148,-1.0176
1386,0.025,-0.041,1.0203,0.0585,-0.2269,-1.0084
1387,0.0176,-0.0287,0.962,0.0844,-0.1414,-0.9048
1388,0.0403,0.0481,0.9999,-0.0563,-0.1499,-0.7651
1389,0.0243,0.0526,1.0731,0.045,-0.1278,-0.6177
1390,0.0469,0.0099,1.0665,0.0546,-0.0599,-0.5114
1391,0.0905,0.0077,0.9884,-0.0904,0.0557,-0.5208
1392,0.0308,-0.0675,1.0641,-0.2506,0.0706,-0.6005
1393,0.0571,-0.0448,1.0867,-0.2687,-0.0811,-0.7541
1394,0.1732,-0.0728,0.9539,-0.3462,0.0063,-0.9339
1395,0.0247,-0.0736,0.9822,-0.2333,0.1454,-0.9507
1396,-0.0331,-0.001,1.0454,-0.2865,0.0385,-0.928
1397,0.0883,-0.0221,0.9772,-0.4029,0.0851,-1.0639
1398,0.0835,-0.1908,0.9409,-0.1208,0.4339,-1.1182
1399,0.0229,0.0266,1.1636,-0.2103,0.3174,-1.0395
1400,0.0673,-0.0544,1.0643,-0.2707,0.2011,-1.0819
1401,0.1281,-0.0164,1.1146,-0.0987,0.2676,-0.8929
1402,0.0953,-0.094,1.1145,-0.014,0.1115,-0.7674
1403,0.1527,-0.1459,0.9862,0.0642,0.1526,-0.7836
1404,0.0298,-0.077,1.0642,-0.0344,0.2586,-0.7916
1405,0.0333,0.0686,1.0624,-0.0743,0.0963,-0.6562
1406,0.0219,-0.0094,1.0492,-0.0047,0.2017,-0.2923
1407,-0.0282,-0.0497,0.9622,0.1277,0.2951,-0.0627
1408,-0.0419,-0.1101,0.9927,0.0254,0.2501,0.0284
1409,-0.0316,-0.0515,1.0079,0.0352,0.023,0.0611
1410,-0.0443,-0.0862,1.0529,-0.0059,0.0154,-0.0398
1411,-0.0111,-0.1296,1.0444,0.0244,-0.0779,-0.1756
1412,-0.0011,-0.0016,1.1121,0.0964,-0.2526,-0.2049
1413,0.0074,0.0691,1.0656,0.1,-0.294,-0.162
1414,-0.0112,0.0936,1.0865,0.1087,-0.1624,0.1595
1415,-0.0074,0.0134,1.0414,0.0079,-0.0079,0.3612
1416,0.0345,-0.0192,0.9865,0.1575,0.0459,0.4262
1417,0.0193,-0.0502,1.0621,-0.0044,0.0692,0.351
1418,0.0315,-0.0721,1.0342,0.0057,-0.0148,0.4457
1419,0.021,-0.0231,1.03,0.1004,-0.1096,0.4302
1420,0.0231,0.0383,1.0059,0.2146,-0.225,0.4688
1421,0.0092,-0.002,0.9882,0.3083,-0.0304,0.5833
1422,0.022,0.0052,1.0448,0.2045,0.2722,0.5972
1423,-0.0183,-0.0314,1.0962,0.2608,0.2616,0.6233
1424,0.0265,-0.0018,1.1111,0.1558,0.1951,0.611
1425,0.0103,0.0151,1.0989,0.2352,0.1988,0.5238
1426,-0.0375,-0.0176,1.1017,0.1188,0.0586,0.3415
1427,-0.016,0.0026,1.0063,0.2571,-0.1417,0.3093
1428,-0.0168,-0.0394,0.926,0.1597,-0.1362,0.4675
1429,0.0115,0.049,0.9647,0.0929,-0.0222,0.6152
1430,-0.0131,0.0449,1.0344,0.0577,0.035,0.568
1431,0.0078,-0.0557,1.0236,0.0835,-0.0663,0.7377
1432,-0.0046,-0.0695,0.9906,0.0035,-0.1871,0.6844
1433,-0.0179,-0.03,1.0404,-0.0019,-0.2638,0.7306
1434,0.0228,0.0469,1.0769,0.063,-0.4466,0.8177
1435,0.0297,0.01,1.0812,-0.0539,-0.3382,0.8606
1436,0.0361,-0.0068,1.0574,-0.1224,-0.1893,0.8446
1437,0.0586,0.0303,1.0116,-0.1196,-0.022,0.8413
1438,0.0563,0.0616,1.0273,-0.1112,0.1977,0.9634
1439,-0.0056,-0.0957,1.0619,-0.1184,0.2543,1.002
1440,-0.009,-0.0754,1.0409,0.0397,0.0096,1.2381
1441,0.0175,-0.0217,1.0314,0.0631,-0.1703,1.2188
1442,0.0707,-0.022,1.062,-0.0593,-0.1698,1.2795
1443,-0.0005,-0.0759,1.0137,-0.1242,-0.1064,1.2322
1444,0.0444,-0.0946,1.014,-0.026,-0.0867,1.2457
1445,0.0802,0.0046,0.9933,-0.0462,0.0003,1.2526
1446,0.0304,-0.0522,0.9836,-0.1529,0.1193,1.2402
1447,0.0114,-0.0791,1.0697,-0.1117,0.0391,1.2056
1448,0.0122,-0.0629,1.0721,-0.0156,-0.0137,1.2205
1449,0.0332,-0.0182,1.0012,0.1461,-0.0036,1.3563
1450,0.0022,-0.0282,1.0415,0.141,0.0965,1.2963
1451,0.0323,-0.0272,1.0424,0.1929,0.1537,1.2743
1452,-0.0446,-0.1188,1.0427,0.1863,0.1834,1.4016
1453,-0.0167,-0.0822,1.1101,0.1095,0.11,1.3279
1454,0.0394,-0.082,1.0184,0.1475,0.1246,1.2386
1455,-0.0416,-0.106,1.0613,0.1423,0.0316,1.226
1456,-0.0219,-0.0763,1.0312,0.0846,-0.1253,1.3756
1457,-0.0046,-0.0173,0.9636,-0.1132,-0.1374,1.3037
1458,0.0084,-0.0575,1.0505,-0.0779,-0.0763,1.4281
1459,-0.0197,-0.0052,0.9647,0.0803,0.1321,1.2987
1460,-0.0348,-0.0907,0.9982,-0.2423,0.2411,1.0839
1461,-0.0498,-0.0714,1.0496,-0.3053,0.1229,0.8835
1462,-0.0682,-0.1182,1.0459,0.2752,0.1899,0.8017
1463,-0.0809,-0.1016,1.1107,0.2828,-0.025,0.8742
1464,0.049,-0.0341,1.0541,-0.0385,-0.3071,0.8724
1465,-0.031,-0.0322,0.9443,-0.03,-0.1445,0.7691
1466,-0.0438,-0.0863,1.0596,0.0381,-0.0234,0.6497
1467,-0.0309,-0.0935,1.0869,0.0224,-0.2028,0.5398
1468,0.0229,-0.1045,0.9764,0.0977,-0.1854,0.3985
1469,-0.0033,-0.0298,1.0355,0.1527,-0.0381,0.4225
1470,-0.0179,-0.0603,1.0461,-0.035,-0.0399,0.3639
1471,-0.0122,-0.1067,0.9868,-0.0892,-0.0241,0.2471
1472,-0.0162,-0.0513,1.0261,0.0232,0.0603,0.2655
1473,-0.0275,-0.0585,0.9919,0.0989,0.1027,0.2939
1474,-0.0703,-0.1184,1.0255,0.384,0.5414,0.1
1475,0.0869,0.0577,1.1312,0.3872,0.018,0.0792
1476,-0.0492,-0.0031,1.0551,0.2839,0.0083,0.0818
1477,-0.0333,-0.0336,1.02,0.231,-0.0024,0.0479
1478,-0.0308,-0.0975,0.9941,0.482,0.0037,0.0743
1479,-0.0396,0.0847,1.0199,0.9543,0.0097,0.1722
1480,-0.0027,-0.0944,0.9155,-0.0447,-0.0099,-0.0057
1481,-0.0249,0.0016,1.0332,0.0228,0.0011,-0.013
1482,-0.0198,-0.0131,1.041,0.0184,-0.0008,-0.1069
1483,-0.0249,0.0149,1.0426,0.0109,0.0008,-0.1445
1484,-0.0457,0.0216,1.035,0.006,0.0044,-0.014
1485,-0.0295,0.0109,1.0337,0.0081,-0.0025,0.0011
1486,-0.025,0.0082,1.0408,0.015,0.002,-0.0081
1487,-0.0286,0.0264,1.0356,0.0044,0.0064,-0.1606
1488,-0.0665,-0.0244,1.0337,0.0075,-0.004,-0.1316
1489,-0.0251,0.0094,1.0292,0.0061,-0.0041,-0.0009
1490,-0.0276,-0.0021,1.0358,0.0055,-0.0023,-0.0028
1491,-0.0281,0.0066,1.0388,0.01,-0.0025,-0.0021
1492,-0.027,0.0046,1.0374,0.0019,-0.0071,-0.0001
1493,-0.0304,0.0061,1.0366,0.0112,-0.0027,-0.0009
1494,-0.0294,0.0087,1.0386,0.0103,-0.0016,-0.0025
1495,-0.0311,0.0094,1.037,0.0093,-0.0027,-0.0044
1496,-0.0317,0.0096,1.0369,0.0121,-0.0013,-0.0031
1497,-0.0306,0.0099,1.0339,0.0101,-0.0029,-0.0016
1498,-0.0322,0.0077,1.0391,0.0087,-0.0017,-0.0007
1499,-0.0309,0.0048,1.0349,0.0096,-0.0025,-0.0043
1500,-0.0332,0.0044,1.0355,0.0112,-0.004,-0.0016
1501,-0.0306,0.0062,1.032,0.0087,-0.0039,-0.0023
1502,-0.0293,0.0068,1.0349,0.0092,-0.0037,-0.0027
1503,-0.0272,0.006,1.0332,0.0111,-0.0037,-0.0029
1504,-0.0293,0.0082,1.0369,0.0087,-0.0011,-0.0027
1505,-0.0298,0.0085,1.0359,0.0089,-0.0012,-0.0024
1506,-0.0292,0.0071,1.0393,0.0105,-0.0028,-0.0017
1507,-0.0294,0.0101,1.0404,0.0089,-0.0011,-0.0036
1508,-0.0306,0.0077,1.0393,0.0091,-0.0035,-0.0019
1509,-0.0283,0.0092,1.0386,0.0113,-0.0016,-0.0015
1510,-0.0297,0.0073,1.0349,0.0095,-0.0011,0.0004
1511,-0.0303,0.0095,1.041,0.0085,-0.0013,-0.0024
1512,-0.0304,0.0083,1.0363,0.0104,-0.0008,-0.0017
1513,-0.0323,0.0066,1.043,0.0117,-0.0035,-0.0025
1514,-0.0287,0.0056,1.0413,0.01,-0.0028,-0.0024
1515,-0.031,0.0045,1.0383,0.01,-0.0033,-0.0009
1516,-0.0293,0.0087,1.0387,0.01,-0.0029,-0.0027
1517,-0.0284,0.0073,1.0397,0.0104,-0.0039,-0.0008
1518,-0.0286,0.0085,1.0389,0.0088,-0.0013,-0.0011
1519,-0.0281,0.0072,1.0372,0.0075,-0.0035,-0.0021
1520,-0.0319,0.0083,1.0356,0.0111,-0.004,-0.0012
1521,-0.0306,0.005,1.038,0.0111,-0.0048,-0.0036
1522,-0.0283,0.0081,1.0421,0.01,-0.0035,-0.0021
1523,-0.0305,0.0072,1.0399,0.0104,-0.0023,-0.0012
1524,-0.0286,0.0076,1.0389,0.0099,-0.0019,-0.0007
1525,-0.0287,0.0052,1.037,0.0095,-0.0012,-0.0031
1526,-0.0306,0.0093,1.0413,0.0108,-0.0044,-0.0009
1527,-0.0284,0.0081,1.0388,0.0096,-0.0007,-0.0007
1528,-0.0283,0.0081,1.0411,0.0081,-0.0011,-0.004
1529,-0.0278,0.009,1.0361,0.0093,-0.0032,0.0011
1530,-0.0303,0.0085,1.0378,0.0095,-0.0016,-0.0023
1531,-0.0288,0.0077,1.0347,0.0085,-0.0027,-0.0017
1532,-0.0267,0.0072,1.0394,0.0084,-0.0037,-0.004
1533,-0.0297,0.0056,1.0364,0.0095,-0.0024,-0.0031
1534,-0.0275,0.0099,1.0374,0.0087,-0.0047,-0.0028
1535,-0.0299,0.0078,1.0352,0.0097,-0.0025,-0.0039
1536,-0.0275,0.006,1.0393,0.0096,-0.0035,-0.0013
1537,-0.0317,0.0063,1.0353,0.0105,-0.0028,-0.0019
1538,-0.0286,0.0088,1.0386,0.0097,-0.0015,-0.0036
1539,-0.0272,0.0062,1.0372,0.0121,-0.0019,-0.0032
1540,-0.0283,0.007,1.0365,0.0075,-0.0011,-0.0007
1541,-0.0291,0.0056,1.0372,0.0099,-0.0016,-0.0001
1542,-0.03,0.0096,1.0355,0.008,0.0004,-0.0017
1543,-0.0291,0.0062,1.0369,0.0089,-0.0044,-0.002
1544,-0.0302,0.0073,1.0366,0.0091,-0.002,-0.0024
1545,-0.0312,0.004,1.0392,0.0084,-0.0025,-0.0008
1546,-0.0306,0.0098,1.0341,0.0085,-0.0021,-0.0011
1547,-0.0283,0.0077,1.0358,0.0089,-0.0012,-0.0016
1548,-0.0306,0.0071,1.0348,0.0079,-0.0024,-0.0007
1549,-0.0321,0.0083,1.0369,0.0096,-0.0024,-0.0021
1550,-0.0283,0.007,1.0383,0.0115,-0.0013,-0.0035
1551,-0.0303,0.0077,1.0374,0.0107,-0.0015,-0.0023
1552,-0.0287,0.0078,1.0366,0.0092,-0.0013,-0.0024
1553,-0.0292,0.009,1.0366,0.0125,-0.0035,-0.0035
1554,-0.03,0.0067,1.0365,0.0126,-0.0019,0.0001
1555,-0.0284,0.0051,1.0437,0.0104,-0.0013,-0.0012
1556,-0.0292,0.0072,1.0367,0.0109,-0.0028,-0.0045
1557,-0.0311,0.0065,1.0378,0.0093,-0.0043,-0.0031
1558,-0.0294,0.006,1.0389,0.0099,-0.0019,-0.0032
1559,-0.0299,0.0074,1.0403,0.0112,-0.0007,-0.0017
1560,-0.0322,0.009,1.0404,0.0096,-0.0037,-0.002
1561,-0.0314,0.0079,1.0394,0.0081,-0.0016,-0.0028
1562,-0.0298,0.0073,1.0398,0.0123,-0.0036,-0.0025
1563,-0.0291,0.0074,1.0396,0.0092,-0.0027,-0.0028
1564,-0.0278,0.0079,1.0388,0.0096,-0.0017,-0.0013
1565,-0.0284,0.0092,1.0397,0.0093,-0.0013,-0.0015
1566,-0.0289,0.0079,1.0386,0.0088,-0.0011,-0.0035
1567,-0.0292,0.0099,1.0419,0.0093,-0.0023,-0.0015
1568,-0.0284,0.0062,1.0359,0.0108,-0.0027,-0.0028
1569,-0.03,0.0084,1.0398,0.0103,-0.0011,-0.0025
1570,-0.0327,0.006,1.036,0.0095,-0.0032,-0.0009
1571,-0.0309,0.0056,1.043,0.0103,-0.0029,-0.0023
1572,-0.0281,0.0044,1.0382,0.0119,-0.0021,-0.0032
1573,-0.0265,0.0054,1.0391,0.0105,-0.0032,-0.0009
1574,-0.032,0.0083,1.0353,0.0119,-0.0023,-0.0015
1575,-0.0269,0.0078,1.04,0.0083,-0.0024,-0.0037
1576,-0.0305,0.0082,1.0372,0.0091,-0.0025,-0.0017
1577,-0.0281,0.0056,1.0404,0.0113,-0.0027,-0.0013
1578,-0.0288,0.0059,1.0355,0.0088,-0.004,-0.0015
1579,-0.0295,0.0034,1.0391,0.01,-0.0025,-0.0025
1580,-0.0323,0.0056,1.0355,0.0083,-0.0027,-0.0023
1581,-0.033,0.0078,1.0367,0.0101,-0.0008,-0.0017
1582,-0.0269,0.0071,1.0356,0.0096,-0.0028,-0.0029
1583,-0.0299,0.0071,1.0367,0.0081,-0.0019,-0.0027
1584,-0.0305,0.0051,1.0334,0.01,-0.0016,-0.0009
1585,-0.0309,0.0065,1.0389,0.0084,-0.002,-0.0009
1586,-0.0281,0.007,1.0375,0.0097,-0.0029,-0.002
1587,-0.0281,0.0104,1.036,0.0091,-0.0032,-0.0024
1588,-0.0289,0.0071,1.035,0.0108,-0.0016,-0.0043
1589,-0.0308,0.0065,1.0348,0.01,-0.0025,-0.0011
1590,-0.0273,0.0049,1.0338,0.0101,0.0003,-0.0045
1591,-0.0314,0.0081,1.0339,0.0096,-0.0036,-0.0024
1592,-0.0282,0.0054,1.0399,0.0108,-0.0025,-0.0033
1593,-0.03,0.0078,1.0364,0.0076,-0.0035,-0.0021
1594,-0.0294,0.007,1.0356,0.0073,-0.0032,-0.004
1595,-0.0332,0.0084,1.0348,0.0081,-0.0028,-0.0035
1596,-0.0281,0.0107,1.0411,0.0087,-0.002,-0.0024
1597,-0.0299,0.0061,1.0402,0.0089,-0.0037,-0.0047
1598,-0.0297,0.0099,1.0366,0.0099,-0.0016,-0.0028
1599,-0.0287,0.0083,1.0361,0.0068,-0.0033,-0.0025
1600,-0.0298,0.0067,1.0375,0.01,-0.0036,-0.0009
1601,-0.0322,0.0089,1.0355,0.0111,-0.0032,-0.0004
1602,-0.0259,0.0088,1.0391,0.01,-0.0025,-0.0028
1603,-0.0308,0.0073,1.0394,0.0101,-0.0033,-0.0036
1604,-0.028,0.0078,1.0375,0.0099,-0.0025,-0.0021
1605,-0.0298,0.0098,1.042,0.0091,-0.0025,-0.004
1606,-0.0283,0.0101,1.0385,0.0075,-0.0013,-0.0016
1607,-0.0309,0.0079,1.0389,0.0109,-0.0027,-0.002
1608,-0.0297,0.0066,1.0388,0.0085,-0.0028,-0.0013
1609,-0.0291,0.0079,1.0386,0.0124,-0.0025,-0.0029
1610,-0.0294,0.0054,1.0387,0.0091,-0.0023,-0.0027
1611,-0.0283,0.0042,1.0353,0.0084,-0.0039,-0.002
1612,-0.0289,0.0076,1.0398,0.0099,-0.0021,-0.002
1613,-0.0308,0.0038,1.0365,0.0116,-0.0011,-0.0037
1614,-0.0298,0.0088,1.0393,0.0104,-0.0036,-0.0012
1615,-0.0302,0.0066,1.0349,0.0108,-0.0029,-0.0016
1616,-0.0286,0.0099,1.0398,0.0075,-0.0028,-0.0023
1617,-0.0316,0.0062,1.0347,0.0113,-0.0045,-0.0024
1618,-0.0295,0.0073,1.0369,0.0123,-0.0032,-0.0033
1619,-0.0299,0.005,1.0348,0.0073,-0.0029,-0.0032
1620,-0.0309,0.0072,1.0385,0.0091,-0.0025,-0.0003
1621,-0.0287,0.0067,1.0352,0.0097,-0.0031,-0.0017
1622,-0.0305,0.0092,1.0393,0.0105,-0.0028,-0.0023
1623,-0.0299,0.0065,1.0366,0.0089,-0.0039,-0.0012
1624,-0.0284,0.0061,1.0345,0.0116,-0.0024,-0.0039
1625,-0.0308,0.0051,1.0349,0.0105,-0.0024,-0.0028
1626,-0.0299,0.0083,1.0359,0.0072,-0.0023,-0.002
1627,-0.0302,0.0061,1.035,0.0085,-0.0019,-0.0021
1628,-0.0314,0.0072,1.0388,0.0101,-0.0019,-0.0015
1629,-0.0304,0.0059,1.0381,0.0111,-0.0025,-0.0021
1630,-0.03,0.0072,1.0382,0.0092,-0.0031,-0.0004
1631,-0.0306,0.0066,1.035,0.0104,-0.0035,-0.0027
1632,-0.0297,0.007,1.036,0.01,-0.0017,-0.0007
1633,-0.0293,0.0065,1.0397,0.0103,-0.0015,-0.0033
1634,-0.0332,0.0072,1.0369,0.0101,-0.0033,-0.0016
1635,-0.0269,0.0059,1.0354,0.0097,-0.0009,-0.0017
1636,-0.0319,0.0062,1.04,0.0092,-0.0027,-0.0021
1637,-0.0292,0.0066,1.0374,0.0085,-0.0013,-0.0036
1638,-0.0315,0.007,1.0342,0.008,-0.0021,-0.0019
1639,-0.0293,0.009,1.0403,0.0101,-0.0028,-0.0007
1640,-0.0326,0.0079,1.0353,0.0087,-0.0008,-0.0005
1641,-0.0256,0.007,1.037,0.008,-0.0019,-0.0024
1642,-0.0317,0.0093,1.0375,0.0109,-0.0013,-0.0016
1643,-0.0284,0.0087,1.0382,0.0084,-0.004,-0.0011
1644,-0.0295,0.0071,1.0382,0.0091,-0.0003,-0.0013
1645,-0.0281,0.0084,1.0366,0.0092,-0.0044,-0.0019
1646,-0.0289,0.0054,1.0374,0.01,-0.0029,-0.0009
1647,-0.0304,0.0073,1.0352,0.0087,-0.0027,-0.0024
1648,-0.0303,0.0049,1.0383,0.0099,-0.0021,-0.0007
1649,-0.0298,0.0084,1.0371,0.0087,-0.0007,-0.0025
1650,-0.0297,0.0065,1.0381,0.0088,-0.0051,-0.0047
1651,-0.0305,0.009,1.0381,0.0101,-0.0029,-0.0007
1652,-0.0295,0.0087,1.0382,0.008,-0.004,-0.0012
1653,-0.0294,0.0093,1.0426,0.0101,-0.0035,0.0004
1654,-0.0315,0.007,1.038,0.0085,-0.0021,-0.0015
1655,-0.0291,0.0093,1.0437,0.0116,-0.0019,-0.0025
1656,-0.0297,0.006,1.0349,0.0089,-0.0024,-0.0039
1657,-0.0281,0.0068,1.0354,0.0111,-0.0013,-0.0009
1658,-0.03,0.0063,1.0333,0.0071,-0.0039,-0.0011
1659,-0.03,0.007,1.0334,0.01,-0.0029,-0.0032
1660,-0.0309,0.0072,1.0352,0.0113,-0.0024,-0.0024
1661,-0.0317,0.0088,1.04,0.0091,-0.0037,-0.0017
1662,-0.0308,0.0087,1.0349,0.008,-0.0025,-0.0013
1663,-0.0287,0.0071,1.0389,0.0096,-0.0019,-0.0008
1664,-0.0297,0.0061,1.0341,0.0097,-0.0029,0.0001
1665,-0.0282,0.0067,1.0343,0.0112,-0.0021,-0.0017
1666,-0.0303,0.0077,1.0364,0.0104,-0.002,-0.0057
1667,-0.0309,0.0067,1.0365,0.014,-0.0028,-0.0028
1668,-0.0294,0.0063,1.0333,0.0105,-0.0059,-0.0045
1669,-0.0294,0.0089,1.037,0.0085,-0.0028,-0.0025
1670,-0.0261,0.0083,1.0325,0.0105,-0.0037,-0.0032
1671,-0.0282,0.0051,1.0336,0.0092,-0.0035,-0.0036
