Count,Accel.X,Accel.Y,Accel.Z,Gyro.X,Gyro.Y,Gyro.Z
67,-0.0165,-0.0162,1.0482,0.0103,-0.002,-0.0013
68,-0.0156,-0.0181,1.0504,0.008,-0.0009,-0.002
69,-0.0158,-0.0186,1.0504,0.0092,-0.0031,-0.0025
70,-0.0153,-0.0197,1.0475,0.0096,-0.0017,-0.002
71,-0.0177,-0.0197,1.0483,0.0079,-0.0043,-0.002
72,-0.0144,-0.0188,1.0455,0.0083,-0.0013,-0.0031
73,-0.0141,-0.0228,1.0491,0.0107,-0.0015,-0.0004
74,-0.0154,-0.0218,1.0487,0.0075,-0.0013,-0.0021
75,-0.0147,-0.0203,1.0467,0.0084,-0.0017,-0.0019
76,-0.0163,-0.0203,1.0498,0.0072,-0.0037,-0.0013
77,-0.0158,-0.0201,1.0478,0.0075,-0.0028,-0.0028
78,-0.016,-0.0193,1.0479,0.0089,-0.0039,-0.0019
79,-0.0164,-0.0211,1.0513,0.0109,-0.0028,-0.0019
80,-0.0168,-0.019,1.0455,0.0117,-0.0025,-0.0025
81,-0.0153,-0.0189,1.0495,0.0107,0.0019,-0.0013
82,-0.0165,-0.0198,1.0458,0.0111,0.0007,-0.0017
83,-0.0135,-0.0202,1.0478,0.0089,-0.0032,-0.0019
84,-0.0179,-0.0211,1.0471,0.0076,-0.0027,-0.0021
85,-0.0162,-0.0204,1.0476,0.0091,-0.0033,-0.0013
86,-0.0179,-0.0206,1.0484,0.0105,-0.0037,-0.0025
87,-0.0163,-0.0185,1.0482,0.0071,-0.0013,-0.0012
88,-0.0149,-0.0206,1.0495,0.0075,-0.0031,-0.0024
89,-0.0162,-0.0196,1.0502,0.0089,-0.0003,-0.0035
90,-0.0162,-0.0213,1.0492,0.0077,-0.0029,-0.0028
91,-0.0133,-0.0197,1.0462,0.0092,-0.0021,-0.0007
92,-0.0162,-0.0195,1.0475,0.0093,-0.0017,-0.0021
93,-0.0159,-0.0196,1.048,0.0077,0.0008,-0.0025
94,-0.0154,-0.0189,1.0491,0.0092,-0.0023,-0.0019
95,-0.0156,-0.0214,1.0475,0.0097,-0.0001,-0.0032
96,-0.0151,-0.0205,1.0435,0.0079,-0.0021,-0.0015
97,-0.0154,-0.0198,1.0482,0.0088,-0.0017,-0.0012
98,-0.017,-0.019,1.0488,0.0063,-0.0012,-0.0013
99,-0.0164,-0.022,1.0479,0.0072,-0.0044,-0.0015
100,-0.0159,-0.0195,1.0493,0.0065,-0.0025,-0.0012
101,-0.0147,-0.0222,1.0481,0.0087,-0.0021,-0.0019
102,-0.0152,-0.0185,1.0453,0.0087,-0.0008,-0.0021
103,-0.0147,-0.018,1.0486,0.0103,-0.0016,-0.0027
104,-0.0179,-0.0196,1.0468,0.0109,-0.0001,-0.0013
105,-0.0158,-0.018,1.0481,0.0081,-0.004,-0.0023
106,-0.015,-0.0206,1.0475,0.0092,-0.0036,-0.0033
107,-0.0162,-0.0217,1.0433,0.0067,-0.0049,-0.0013
108,-0.0142,-0.0198,1.0487,0.0088,-0.0032,-0.0021
109,-0.0159,-0.0189,1.0462,0.0059,-0.0015,-0.0008
110,-0.0152,-0.0208,1.0491,0.0068,-0.0037,-0.002
111,-0.0153,-0.0176,1.0471,0.0059,-0.0017,-0.0017
112,-0.0164,-0.0336,1.0483,0.0085,-0.0028,0.0036
113,-0.0134,-0.0027,1.0452,0.0268,0.0096,-0.0024
114,-0.0142,-0.0229,1.0471,0.0019,-0.0059,-0.017
115,-0.02,-0.0237,1.0496,0.0016,-0.0073,0.0049
116,-0.0308,-0.0137,1.0475,0.0108,0.0023,0.0136
117,-0.0228,-0.0259,1.0516,0.0032,-0.0068,-0.013
118,-0.0122,-0.026,1.0445,0.002,-0.0174,-0.0093
119,-0.004,-0.0174,1.0469,0.0109,-0.0071,0.0019
120,-0.0017,-0.017,1.0458,0.0084,-0.0011,-0.0025
121,-0.0092,-0.0219,1.0483,0.0029,0.0003,-0.0097
122,-0.0186,-0.0164,1.0469,0.0061,0.0028,-0.0072
123,-0.0215,-0.0149,1.0502,0.0053,0.0009,-0.0019
124,-0.0218,-0.0214,1.0482,0.002,-0.002,-0.0044
125,-0.0197,-0.0268,1.049,0.0021,-0.0056,-0.0041
126,-0.0142,-0.027,1.0468,0.0097,-0.0015,-0.0033
127,-0.0115,-0.0209,1.0474,0.0124,-0.0012,-0.0044
128,-0.0071,-0.0179,1.0484,0.0115,-0.0025,-0.0055
129,-0.013,-0.0159,1.0482,0.0069,-0.0027,-0.0012
130,-0.0173,-0.0187,1.0499,0.0071,0.0024,0.0004
131,-0.0217,-0.0211,1.0496,0.0056,-0.0003,-0.0017
132,-0.0187,-0.0273,1.0502,0.0048,-0.006,-0.0049
133,-0.0181,-0.0239,1.0486,0.0095,-0.0045,-0.0037
134,-0.0121,-0.0193,1.0463,0.0093,-0.0043,-0.0027
135,-0.0131,-0.0129,1.0457,0.0064,-0.0021,-0.0056
136,-0.0146,-0.0181,1.0474,0.0017,-0.0021,-0.0111
137,-0.0139,-0.0227,1.0487,0.0035,-0.0023,-0.0084
138,-0.0134,-0.0261,1.0494,0.0052,-0.0024,-0.0016
139,-0.0186,-0.0236,1.0475,0.0125,-0.0008,0.0
140,-0.0203,-0.0217,1.0488,0.0141,0.0004,0.0011
141,-0.0167,-0.0198,1.0489,0.0112,-0.006,0.0005
142,-0.0165,-0.0173,1.0474,0.0072,-0.0065,-0.0016
143,-0.0136,-0.0187,1.0468,0.0073,-0.0028,-0.0045
144,-0.0123,-0.0223,1.0493,0.0079,-0.0013,-0.0035
145,-0.0131,-0.0246,1.0469,0.0075,-0.0004,-0.0015
146,-0.0206,-0.0221,1.05,0.0083,0.0004,-0.0003
147,-0.0184,-0.0192,1.0493,0.0089,-0.0028,-0.0027
148,-0.0162,-0.0215,1.0475,0.0107,-0.0037,-0.0009
149,-0.0166,-0.0166,1.0453,0.0112,-0.0025,0.0013
150,-0.0093,-0.0212,1.0467,0.0089,-0.0027,-0.0016
151,-0.0137,-0.0212,1.0464,0.0105,0.0001,-0.0031
152,-0.0178,-0.0192,1.0481,0.0085,-0.0013,-0.0007
153,-0.0153,-0.0195,1.0482,0.0107,-0.0004,-0.0001
154,-0.0169,-0.0208,1.0499,0.0069,-0.0032,-0.0019
155,-0.017,-0.0203,1.0486,0.0101,-0.0001,-0.0007
156,-0.0156,-0.018,1.0489,0.0092,-0.002,-0.0024
157,-0.0125,-0.022,1.0509,0.0064,-0.0056,-0.0036
158,-0.0154,-0.0189,1.0468,0.0093,-0.002,-0.0027
159,-0.013,-0.0195,1.0487,0.0071,-0.0001,-0.0028
160,-0.0142,-0.0241,1.0491,0.0077,-0.0001,-0.0036
161,-0.0204,-0.0228,1.0494,0.0084,-0.0035,-0.0004
162,-0.0189,-0.0199,1.0498,0.01,-0.0047,-0.0004
163,-0.0158,-0.0206,1.0496,0.0099,-0.0044,-0.0024
164,-0.0249,-0.0168,1.0488,0.0088,-0.0056,0.0021
165,-0.0307,-0.014,1.0508,0.0099,-0.0087,0.0044
166,-0.0224,-0.0157,1.0436,0.0068,-0.014,0.0117
167,-0.0403,-0.0031,1.0496,0.0063,-0.0056,0.0069
168,-0.0393,-0.0117,1.0503,0.0111,0.0011,0.0023
169,-0.0479,-0.011,1.0508,0.0043,-0.0029,0.0088
170,-0.0607,-0.0147,1.0535,0.0059,-0.0115,0.0205
171,-0.0678,-0.0007,1.0457,0.0091,-0.0104,0.0258
172,-0.0719,0.0007,1.042,0.0115,-0.0032,0.0277
173,-0.0793,0.0061,1.044,0.0238,0.0144,0.0297
174,-0.0999,-0.0004,1.05,0.0096,0.0081,0.0333
175,-0.097,0.0108,1.0485,0.0144,0.0008,0.0345
176,-0.0964,0.0051,1.068,-0.0067,-0.01,0.0286
177,-0.0727,0.0026,1.0497,-0.0092,-0.0253,0.023
178,-0.0746,0.0027,1.0541,-0.0261,-0.0458,0.0256
179,-0.0717,-0.0151,1.0118,0.0177,0.0169,0.0216
180,-0.0535,-0.062,1.0753,-0.0246,-0.0374,0.0368
181,-0.0862,0.0198,1.0684,0.008,-0.017,0.0545
182,-0.0527,-0.004,0.9976,0.0819,0.0533,0.0493
183,-0.0557,-0.0201,1.1246,-0.0312,-0.0214,0.041
184,-0.0551,0.0259,1.0355,0.0474,0.0422,0.0389
185,-0.0285,-0.0242,1.0217,-0.0145,-0.0268,0.0375
186,-0.0215,-0.0281,1.0681,0.0515,0.0274,0.0389
187,-0.0167,-0.0402,1.0092,-0.0278,-0.0554,0.0578
188,0.0054,-0.01,1.03,0.0353,-0.0261,0.0678
189,-0.0436,0.0069,1.0864,0.0212,-0.0188,0.0732
190,-0.0336,-0.0692,1.0225,0.0164,-0.0032,0.0766
191,-0.0135,0.0117,1.085,-0.0166,-0.0502,0.0843
192,-0.0404,-0.0269,1.042,0.0092,0.0019,0.0776
193,-0.0228,-0.0107,1.0199,0.0138,-0.0047,0.0631
194,-0.061,-0.0517,1.0681,0.002,0.0063,0.0655
195,-0.0123,-0.0356,1.0567,-0.0426,-0.0491,0.0614
196,-0.0502,-0.021,1.0035,-0.0081,-0.0153,0.0527
197,-0.0399,-0.0388,1.0531,-0.0073,-0.0088,0.0507
198,-0.0581,-0.0349,1.06,-0.0228,-0.0407,0.0494
199,-0.0934,-0.022,0.9801,0.0675,0.0668,0.0403
200,-0.042,-0.0297,1.1342,0.0716,0.057,0.0265
201,-0.0577,-0.0561,1.0554,-0.0056,-0.0599,0.0294
202,-0.0396,-0.0552,1.0178,-0.0402,-0.0901,0.033
203,-0.0352,-0.0541,1.0352,0.0021,-0.0304,0.0321
204,-0.044,-0.0206,1.098,-0.061,-0.0507,0.0301
205,-0.0731,0.022,1.016,0.1107,0.0999,0.0329
206,-0.1052,-0.0554,1.087,-0.012,0.0439,0.0304
207,-0.0533,0.0127,0.9492,0.0832,0.0851,0.0417
208,-0.0135,-0.022,1.0729,0.0344,0.0153,0.0429
209,-0.0352,-0.0565,0.975,0.006,-0.0276,0.0302
210,0.0042,-0.0659,1.0858,-0.0173,-0.0125,0.0258
211,-0.0208,-0.0587,1.1136,-0.0951,-0.0863,0.0057
212,-0.0303,0.0571,1.0595,-0.0073,-0.0186,-0.0065
213,0.0015,-0.0399,1.0109,0.0378,0.0563,-0.0221
214,-0.0219,-0.0496,0.9947,0.0533,0.0305,-0.0463
215,0.04,0.0183,1.1443,0.0289,0.0134,-0.0499
216,0.0008,-0.0443,0.9037,0.0059,-0.0093,-0.0876
217,-0.096,-0.04,1.0275,0.0883,0.1093,-0.0957
218,-0.0873,0.045,1.1055,0.2981,0.2877,-0.0699
219,-0.0424,-0.112,1.0635,0.1418,0.0868,-0.0607
220,0.0326,-0.1521,1.2407,-0.1952,-0.2671,-0.0395
221,-0.0628,0.0448,0.9944,-0.1236,-0.1687,-0.0683
222,0.0041,0.0436,1.1107,0.0115,-0.0276,-0.0322
223,-0.0651,-0.0013,1.0307,0.0136,0.0391,-0.0635
224,0.024,-0.0057,0.9813,0.0104,0.0505,-0.0776
225,-0.0189,-0.0689,1.0371,-0.0393,0.0003,-0.066
226,0.0073,-0.1078,0.9753,-0.0869,-0.1108,-0.0273
227,0.0031,-0.0696,1.0083,-0.0907,-0.122,0.0309
228,-0.0494,0.0142,0.9969,0.0979,0.078,0.0678
229,-0.0582,-0.0248,1.0115,0.1341,0.1206,0.0933
230,-0.0093,-0.0305,1.0583,0.1405,0.1146,0.1142
231,-0.0096,-0.0876,1.0007,0.0156,-0.0264,0.1148
232,0.0314,-0.0717,1.332,-0.192,-0.1656,0.1122
233,-0.1526,0.0247,0.9658,-0.0172,-0.0069,0.0771
234,0.082,-0.0605,1.0106,-0.0309,-0.0724,0.1041
235,0.0278,-0.0853,1.1494,-0.0969,-0.1455,0.068
236,0.042,-0.0515,0.992,-0.0071,-0.0672,0.0314
237,-0.032,-0.0359,1.0286,-0.0751,-0.0985,-0.0292
238,-0.082,0.0259,1.0118,0.1358,0.0999,-0.075
239,0.0387,0.0031,1.1324,0.0762,0.0518,-0.1075
240,0.009,-0.0919,1.1194,-0.1601,-0.1751,-0.157
241,0.0131,-0.0648,1.0922,-0.1949,-0.2176,-0.1767
242,0.0349,0.0059,0.9998,0.0177,-0.062,-0.1917
243,0.0281,-0.0793,1.228,-0.106,-0.1204,-0.221
244,-0.0847,0.0596,0.9913,0.0711,0.0487,-0.2164
245,0.0809,0.0229,1.0297,0.0815,0.0482,-0.1543
246,0.0897,-0.063,1.0773,-0.1549,-0.1553,-0.1212
247,0.0218,0.101,1.009,0.0269,0.0293,-0.0949
248,0.0431,-0.0344,1.0562,-0.1051,-0.0724,-0.0698
249,-0.0469,0.0239,1.0551,-0.071,-0.0515,-0.0494
250,-0.02,-0.0587,1.0662,0.0256,0.0502,0.0059
251,0.0637,-0.0073,1.2856,-0.1272,-0.1304,0.0632
252,-0.0468,0.1751,1.183,0.0361,-0.0534,0.069
253,0.0377,-0.0246,0.9784,0.1076,0.0686,0.0775
254,0.0103,0.0741,0.9528,0.0149,-0.0911,0.1012
255,0.0833,-0.0977,0.9764,-0.0768,-0.0888,0.1041
256,0.116,-0.0599,1.072,-0.2072,-0.2165,0.0957
257,0.0198,-0.016,0.9776,-0.1132,-0.1297,0.0901
258,0.0073,0.0813,1.1764,0.0008,-0.0173,0.0774
259,0.0015,0.0569,1.0001,0.1844,0.1493,0.0569
260,0.0282,-0.0464,1.1584,-0.0272,-0.0214,0.0228
261,0.0035,0.0277,1.0458,0.0029,0.0075,0.0209
262,0.0013,-0.0469,0.9802,-0.0089,-0.0399,0.0165
263,-0.0002,-0.0137,1.1334,-0.0614,-0.0759,0.0088
264,-0.0546,0.0309,1.0612,0.0041,0.0077,-0.0029
265,0.0294,0.008,0.874,0.1083,0.0963,-0.013
266,0.0625,-0.0966,1.1505,-0.1289,-0.1415,-0.0216
267,0.0028,0.0435,1.0817,0.0181,0.0178,-0.016
268,0.053,0.0161,0.962,0.1891,0.123,-0.021
269,0.058,-0.0236,1.1385,-0.1107,-0.1146,-0.0632
270,-0.0334,0.0726,0.908,0.2184,0.1751,-0.0754
271,0.1298,-0.085,1.1042,-0.0956,-0.0967,-0.0607
272,-0.0117,0.049,1.1055,-0.1322,-0.0971,-0.069
273,0.0367,0.0137,0.9991,0.2048,0.181,-0.0495
274,0.0191,-0.0687,1.0754,-0.0446,-0.0269,-0.0499
275,-0.0439,0.0958,1.0449,0.1522,0.1545,-0.0325
276,0.0366,-0.0318,1.0537,0.0487,0.0422,-0.0297
277,0.0226,-0.005,1.0406,-0.0229,-0.0368,-0.0313
278,0.0433,-0.0153,1.0826,0.0375,0.0364,-0.0245
279,0.0509,-0.0319,1.0474,0.0224,0.013,-0.0141
280,0.0407,-0.0036,1.0686,0.0297,0.0087,-0.0033
281,0.0422,-0.0241,1.0255,0.0421,0.0012,-0.0027
282,0.0178,0.0068,1.0748,-0.0257,-0.0449,-0.0212
283,0.0084,0.025,1.033,0.0763,0.068,-0.0149
284,-0.0015,-0.0266,1.0802,-0.0372,-0.0238,-0.0121
285,0.0314,-0.0071,1.046,0.0575,0.0297,-0.0092
286,-0.005,-0.022,1.0302,-0.0485,-0.0648,-0.0065
287,0.0106,-0.0212,1.0488,0.0169,-0.0011,0.0149
288,-0.0076,0.0035,1.0344,0.0224,0.032,0.0286
289,-0.0101,-0.0369,1.033,-0.0007,0.0091,0.0322
290,0.0137,-0.0432,1.1089,0.0005,-0.0264,0.0398
291,-0.0245,0.0015,1.0144,0.0779,0.0333,0.0632
292,-0.0229,-0.0142,1.0369,0.0587,0.055,0.0826
293,0.0421,0.0117,1.0975,0.0377,0.0313,0.0569
294,0.0162,0.0084,1.0235,0.0473,0.0381,0.0352
295,0.0161,-0.0148,1.0536,-0.022,-0.0156,0.0177
296,-0.0226,-0.004,1.0529,0.0149,0.0087,0.0248
297,-0.0052,-0.0399,1.0302,-0.0205,-0.0297,0.0459
298,0.0049,-0.009,1.0643,0.0107,-0.0174,0.0722
299,-0.0018,-0.0317,1.0505,0.0001,-0.0188,0.0904
300,0.0106,0.0008,1.0331,0.0474,0.0296,0.0992
301,0.0007,-0.0086,1.0555,-0.0001,-0.0029,0.113
302,0.0062,-0.0137,1.0653,0.0128,0.0105,0.115
303,0.0683,-0.0066,1.0658,-0.0313,-0.0517,0.108
304,0.0334,0.0082,1.0618,-0.0112,-0.0209,0.0718
305,0.0963,-0.0497,1.0456,0.0113,0.0132,0.0362
306,0.0585,-0.0286,1.0593,0.0043,0.0125,-0.0033
307,0.0657,-0.0497,1.051,-0.0093,0.0036,-0.0197
308,0.0254,-0.0568,1.0463,0.0598,0.063,-0.0521
309,0.0052,-0.0222,1.0535,-0.0031,-0.0153,-0.0541
310,-0.0264,-0.026,1.0421,0.0451,0.0318,-0.0506
311,-0.0244,0.001,1.0555,0.0099,-0.0103,-0.0631
312,-0.0322,-0.0032,1.0449,0.0087,-0.0007,-0.0655
313,-0.0289,-0.0191,1.0472,-0.0055,-0.0068,-0.0626
314,-0.025,-0.0179,1.0563,0.0,-0.0075,-0.0461
315,-0.0253,-0.015,1.0438,0.0173,0.0064,-0.0318
316,-0.0178,-0.0084,1.0467,0.0095,-0.0045,-0.0123
317,-0.0063,-0.0117,1.0474,0.0035,-0.0073,0.0048
318,-0.0101,-0.0102,1.0477,0.0061,0.0049,0.0097
319,-0.0228,-0.0194,1.0514,0.0125,0.0083,0.0077
320,-0.0225,-0.0311,1.0489,0.0068,0.0015,0.0105
321,-0.0151,-0.0194,1.0462,0.0123,-0.0017,0.0064
322,-0.0135,-0.0103,1.045,0.0145,0.0072,-0.0016
323,0.0015,-0.0157,1.0505,0.0087,0.0039,-0.0057
324,0.006,-0.0137,1.0458,0.0035,0.0045,-0.0033
325,0.0021,-0.019,1.0453,0.0049,0.0004,0.0076
326,0.0118,-0.0222,1.0478,0.0119,0.0075,0.0108
327,0.0335,-0.0201,1.0524,0.0052,-0.002,0.0113
328,0.0474,-0.0296,1.0491,0.0097,-0.0005,0.0164
329,0.0609,-0.0203,1.0397,0.0232,0.0087,0.0272
330,0.0687,-0.0201,1.0615,0.0201,0.0049,0.0443
331,0.0833,-0.0052,1.0524,0.0162,-0.0091,0.0522
332,0.0798,-0.0114,1.0319,0.0252,0.0047,0.0521
333,0.098,-0.0318,1.0654,-0.025,-0.0321,0.0526
334,0.0854,-0.0009,1.051,0.0028,-0.0073,0.063
335,0.0909,-0.0344,1.0345,0.0364,0.0414,0.0565
336,0.0809,0.0109,1.0618,-0.0033,-0.0132,0.0093
337,0.0391,-0.1014,1.0507,-0.0495,-0.0393,-0.0241
338,0.1017,-0.0171,1.0978,0.0274,0.0241,-0.0459
339,-0.0377,0.0379,0.9869,0.1651,0.1678,-0.0577
340,0.1384,-0.0583,1.2047,-0.0138,-0.0202,-0.0585
341,-0.0538,0.0665,1.0001,-0.0732,-0.0716,-0.0747
342,0.0103,-0.0504,1.0685,0.131,0.1278,-0.0198
343,0.0731,-0.0015,1.2113,-0.0502,-0.079,0.0322
344,-0.0685,-0.0219,0.936,0.0192,0.0193,0.0466
345,-0.0065,-0.0571,0.9868,0.0589,0.0535,0.0754
346,0.0081,-0.0494,1.1338,-0.098,-0.1218,0.0796
347,-0.0392,0.0292,1.0065,0.0105,0.0134,0.0949
348,-0.0328,-0.0258,0.9846,0.0823,0.0772,0.0806
349,-0.0601,-0.022,1.0536,-0.0222,-0.0258,0.0402
350,0.0149,0.0186,0.9915,-0.0409,-0.0788,0.0017
351,-0.0577,0.1061,1.0377,0.0495,0.0121,-0.0521
352,-0.066,0.0875,1.0706,0.1563,0.1397,-0.1059
353,-0.0207,0.0333,1.0453,0.0138,-0.0039,-0.1509
354,-0.0363,0.0393,1.0193,0.0429,0.0214,-0.1748
355,-0.0098,0.0403,1.1278,-0.0019,0.0065,-0.1579
356,0.0524,-0.0723,1.0522,-0.1523,-0.1095,-0.1373
357,-0.0978,0.046,1.0452,0.0754,0.0575,-0.0989
358,0.0379,-0.1133,1.0544,-0.1113,-0.1257,-0.0479
359,0.0692,-0.0011,1.05,-0.1061,-0.139,0.0043
360,-0.0688,-0.0074,1.0382,0.1382,0.164,0.0425
361,0.092,0.0062,1.1402,0.0352,0.0387,0.08
362,-0.0095,-0.0232,1.042,0.0266,0.0599,0.0835
363,0.0516,-0.0019,1.1166,0.0522,0.0642,0.0779
364,0.0441,-0.0701,1.0738,-0.0173,0.0084,0.0654
365,-0.0068,0.0476,1.1224,0.004,-0.0218,0.0447
366,0.03,-0.0825,1.0585,0.0137,0.0422,0.0361
367,0.0197,-0.0883,1.0287,0.015,-0.0025,0.0325
368,0.0095,-0.0582,0.8998,-0.015,-0.0999,0.0316
369,0.0254,-0.1509,1.1013,-0.0537,-0.0483,-0.0184
370,0.096,0.0066,1.0699,-0.2246,-0.2274,-0.0607
371,-0.0414,-0.0276,0.9543,0.2202,0.2194,-0.0921
372,-0.0092,-0.2003,1.0303,-0.0045,-0.0052,-0.0968
373,0.0717,-0.076,1.0956,-0.1353,-0.1671,-0.1003
374,-0.029,0.0269,0.9233,0.2202,0.1647,-0.1093
375,0.0522,-0.1081,1.0825,-0.0168,-0.0458,-0.0875
376,0.0208,0.0458,1.0477,-0.0531,-0.0856,-0.0704
377,-0.0016,0.0986,1.0251,0.1489,0.1575,-0.0703
378,-0.0854,-0.0961,0.9814,0.17,0.1567,-0.0562
379,-0.0405,-0.1953,1.0173,-0.1146,-0.102,-0.0273
380,0.0692,-0.1179,1.1484,-0.2509,-0.2479,-0.0138
381,-0.1447,0.0579,1.0439,-0.1226,-0.1631,-0.0848
382,-0.1198,0.0031,0.8368,0.2776,0.2248,-0.0091
383,0.1231,-0.1757,1.1558,-0.1467,-0.1591,0.0348
384,-0.0759,0.0965,1.0784,-0.1506,-0.1755,-0.1161
385,-0.0993,0.0052,0.9619,0.2863,0.2702,0.0162
386,-0.1274,-0.115,1.1573,0.059,0.1471,-0.0574
387,-0.0513,-0.0579,1.0651,-0.0699,-0.1426,-0.0352
388,-0.1034,-0.0855,1.114,-0.0755,-0.1321,-0.0594
389,-0.002,0.031,1.0505,-0.077,-0.119,-0.0573
390,-0.0338,0.0881,0.909,0.2188,0.1555,-0.0747
391,-0.0518,-0.1682,1.1233,-0.034,0.0422,-0.0834
392,0.0447,-0.0021,1.0725,-0.1889,-0.2109,-0.0814
393,-0.0551,0.1332,0.9733,0.2051,0.1286,-0.084
394,-0.1163,-0.1107,1.0432,0.1691,0.1615,-0.0803
395,0.0549,-0.1268,1.1417,-0.129,-0.1485,-0.0402
396,-0.0487,0.056,1.0365,-0.1534,-0.1824,-0.1361
397,-0.0526,-0.0238,0.9728,0.0738,0.0847,-0.0372
398,0.0111,0.0534,1.0485,0.1498,0.1044,0.0027
399,-0.0807,-0.0932,1.0442,-0.0117,-0.0176,0.0222
400,-0.0494,0.0293,1.0747,-0.0264,-0.0386,0.0646
401,-0.055,0.2021,1.0037,0.0945,0.1016,0.0723
402,-0.1013,0.1248,0.9266,0.2282,0.2204,0.1226
403,-0.0838,0.0045,1.0722,0.1169,0.1254,0.1495
404,-0.0686,-0.0253,1.0524,0.0479,0.0176,0.1726
405,-0.0153,-0.0236,1.0775,-0.0824,-0.0806,0.1395
406,-0.0189,0.132,1.0231,-0.0752,-0.0997,0.0822
407,-0.1393,-0.0135,0.9714,0.1473,0.1105,0.0759
408,0.029,-0.0724,1.1223,0.0381,0.1289,0.077
409,-0.1779,0.0339,1.0964,-0.1435,-0.1912,-0.0156
410,-0.0972,-0.136,0.9825,-0.124,-0.2087,0.0479
411,-0.0186,-0.0787,1.028,-0.1056,-0.1483,0.0656
412,0.0334,0.0023,1.078,-0.1164,-0.1461,0.078
413,-0.1652,0.0745,1.0326,-0.0019,-0.025,0.0595
414,-0.0557,-0.0624,1.0141,0.1772,0.1418,0.1253
415,-0.0303,-0.1484,1.0774,-0.1363,-0.1546,0.1467
416,-0.0351,-0.0604,0.9971,-0.079,-0.082,0.149
417,-0.1415,-0.0277,1.1495,-0.0097,0.0113,0.1619
418,-0.1136,0.1263,1.0486,0.1573,0.1285,0.1549
419,-0.1843,-0.0145,1.0363,0.1947,0.1881,0.1095
420,-0.1073,-0.1137,1.3061,-0.1132,-0.0859,0.0437
421,-0.1937,0.0408,0.9954,0.0864,0.0249,-0.0088
422,-0.1599,-0.1349,1.0779,0.1164,0.0917,-0.0043
423,-0.1172,-0.0486,1.0932,-0.0913,-0.0925,-0.0348
424,-0.1636,-0.0029,0.9246,0.1483,0.1459,-0.0823
425,-0.1536,-0.1023,1.1115,-0.0144,-0.0113,-0.128
426,-0.1016,-0.0413,1.0076,-0.0683,-0.1075,-0.1979
427,-0.0901,-0.003,1.0272,0.1019,0.0574,-0.2085
428,-0.1167,-0.0178,1.05,0.083,0.0691,-0.1907
429,-0.0798,0.0118,1.0506,-0.0309,-0.0465,-0.1522
430,-0.1288,0.0493,1.0472,0.0599,0.0394,-0.1012
431,-0.0571,0.0107,1.0494,0.0008,-0.0043,-0.0535
432,-0.0659,0.0265,1.0405,-0.0165,-0.0324,-0.0202
433,-0.0603,0.0176,1.0552,-0.0072,-0.0091,0.0222
434,-0.048,-0.0052,1.0412,-0.0016,-0.008,0.0624
435,-0.033,0.0046,1.0449,-0.0104,-0.0083,0.0971
436,-0.0586,-0.001,1.0491,-0.0087,0.0016,0.1268
437,-0.0356,-0.0061,1.049,-0.0068,-0.015,0.151
438,-0.0165,-0.0193,1.0505,-0.0044,-0.0206,0.172
439,-0.0189,-0.0154,1.0449,-0.0049,-0.0142,0.1543
440,-0.0141,-0.0274,1.0496,-0.0101,-0.0162,0.1173
441,0.0096,-0.0394,1.0519,-0.0056,-0.0216,0.0712
442,0.0121,-0.0338,1.0457,0.0123,-0.0097,0.028
443,0.011,-0.0191,1.0442,0.0184,-0.0043,-0.0019
444,0.0165,-0.0111,1.0455,0.0107,0.0009,-0.0181
445,-0.0225,0.0016,1.0449,0.0241,0.0276,-0.0253
446,-0.0317,-0.0156,1.0581,0.0162,0.0134,-0.0198
447,-0.0361,-0.0071,1.0503,0.0128,-0.0063,-0.0091
448,-0.0467,0.0055,1.0432,0.0241,0.0037,-0.0075
449,-0.0372,-0.0012,1.0515,0.0025,-0.0063,-0.006
450,-0.022,-0.0013,1.0477,-0.0007,-0.0124,-0.0009
451,-0.0312,-0.0068,1.0468,0.0071,-0.0017,0.0021
452,-0.0251,-0.0115,1.0497,-0.0015,-0.0133,0.0091
453,-0.0192,-0.011,1.0459,0.0015,-0.0148,0.0121
454,-0.0101,-0.0096,1.0499,0.0068,-0.0067,0.0138
455,-0.0156,-0.0144,1.0457,0.0055,-0.0041,0.0101
456,-0.0219,-0.0089,1.0466,0.0129,0.0045,0.0087
457,-0.0268,-0.0139,1.0492,0.0105,0.0025,0.0055
458,-0.0284,-0.0071,1.0532,0.0071,-0.0056,0.0037
459,-0.0291,-0.0049,1.0455,0.0108,0.0008,-0.0016
460,-0.0219,-0.0087,1.0505,0.0051,-0.0048,-0.0089
461,-0.0193,-0.0112,1.0477,0.0073,-0.0061,-0.0049
462,-0.0228,-0.0118,1.0481,0.0111,-0.0003,-0.0047
463,-0.0225,-0.0104,1.0519,0.0072,-0.0003,-0.0024
464,-0.0226,-0.0108,1.0462,0.0065,-0.006,0.0003
465,-0.024,-0.0067,1.0498,0.0087,-0.0012,-0.0012
466,-0.0294,-0.0092,1.0479,0.0099,-0.0031,-0.0003
467,-0.0306,-0.0053,1.0518,0.0072,-0.0043,-0.0041
468,-0.0282,-0.0074,1.0461,0.0037,-0.0096,-0.0069
469,-0.026,-0.0071,1.0494,-0.0004,-0.0134,-0.0087
470,-0.02,-0.0151,1.0468,0.0035,-0.0104,0.0008
471,-0.0098,-0.0178,1.0463,0.0068,-0.0079,0.0029
472,-0.0125,-0.0127,1.0438,0.0091,-0.002,0.0
473,-0.0129,-0.0122,1.0461,0.0115,0.0055,-0.0035
474,-0.0178,-0.0103,1.0458,0.0158,0.0129,-0.0007
475,-0.0265,-0.0089,1.0459,0.0162,0.0138,-0.0013
476,-0.0372,-0.01,1.05,0.0116,0.0047,-0.0003
477,-0.0378,-0.0059,1.0511,0.015,0.004,0.0025
478,-0.0353,-0.0031,1.0488,0.0093,-0.0085,-0.0008
479,-0.0295,-0.0065,1.0499,0.0001,-0.0166,-0.0052
480,-0.0172,-0.0125,1.0464,-0.0024,-0.0218,-0.0044
481,-0.0143,-0.0146,1.0477,0.0087,-0.0079,0.0005
482,-0.0121,-0.0153,1.0448,0.0085,-0.0035,0.0057
483,-0.0107,-0.0139,1.0468,0.0065,-0.0032,0.0035
484,-0.0212,-0.0069,1.0477,0.016,0.0084,0.0047
485,-0.0258,-0.0086,1.0472,0.0145,0.0096,0.0077
486,-0.0311,-0.0095,1.0499,0.0055,-0.0009,0.0075
487,-0.0329,-0.0087,1.0497,0.0095,-0.0004,0.0032
488,-0.0332,-0.0082,1.052,0.0093,-0.0039,-0.0007
489,-0.0284,-0.0089,1.0532,0.0076,-0.0113,0.0025
490,-0.0186,-0.0016,1.0494,0.0056,-0.0125,0.0033
491,-0.0144,-0.0077,1.0468,0.0055,-0.0035,-0.0061
492,-0.0139,-0.0209,1.0459,0.0041,-0.0032,-0.0153
493,-0.0161,-0.0217,1.0463,0.0077,-0.0015,-0.0095
494,-0.0176,-0.0135,1.0441,0.0198,0.0096,-0.0029
495,-0.0214,-0.0016,1.0501,0.0206,0.0091,-0.0015
496,-0.0283,-0.0024,1.05,0.0076,0.0016,0.0009
497,-0.0281,-0.0054,1.0502,0.0072,-0.0013,0.0028
498,-0.0284,-0.0093,1.0472,0.0069,-0.0017,0.0043
499,-0.0295,-0.0128,1.0457,0.01,-0.0055,0.0009
500,-0.0219,-0.0123,1.0481,0.0041,-0.0112,-0.0037
501,-0.0186,-0.0101,1.0494,0.0024,-0.0104,-0.0075
502,-0.0187,-0.0087,1.0469,0.0133,-0.0021,-0.0031
503,-0.0178,-0.009,1.0489,0.0092,-0.0029,0.0012
504,-0.0184,-0.0091,1.0493,0.004,-0.0067,-0.0001
505,-0.025,-0.0058,1.0453,0.0111,0.0015,0.002
506,-0.0231,-0.0134,1.0471,0.0115,0.002,0.0017
507,-0.0231,-0.01,1.0486,0.0024,-0.0075,0.0003
508,-0.0239,-0.0102,1.0499,0.0097,-0.0031,-0.0019
509,-0.0275,-0.0054,1.0464,0.0116,-0.0004,-0.0027
510,-0.0238,-0.0114,1.049,0.0052,-0.0033,-0.0005
511,-0.0231,-0.0112,1.0502,0.0083,-0.0041,-0.0007
512,-0.024,-0.0086,1.0483,0.0084,-0.006,0.0004
513,-0.0222,-0.0059,1.0515,0.0103,-0.0012,0.0003
514,-0.0234,-0.0084,1.0482,0.0065,-0.0048,-0.0011
515,-0.0281,-0.0087,1.0488,0.0097,-0.0008,-0.0021
516,-0.0252,-0.0118,1.0515,0.0047,-0.0072,-0.004
517,-0.0247,-0.0111,1.0472,0.0084,-0.0039,-0.0057
518,-0.022,-0.0101,1.0483,0.0097,-0.0029,-0.0027
519,-0.0191,-0.0107,1.048,0.0107,-0.0047,-0.0024
520,-0.0204,-0.0097,1.0476,0.0075,-0.0028,-0.0016
521,-0.0213,-0.0098,1.0452,0.0091,-0.0027,-0.0033
522,-0.0237,-0.0106,1.0486,0.0048,-0.0039,-0.0013
523,-0.0211,-0.0117,1.049,0.0077,-0.0011,-0.0019
524,-0.0258,-0.0098,1.0485,0.0108,-0.0041,-0.0003
525,-0.0244,-0.0101,1.0487,0.0109,-0.0055,-0.0005
526,-0.0217,-0.0078,1.0495,0.0051,-0.0061,0.0007
527,-0.0215,-0.0081,1.0493,0.0117,-0.0035,0.004
528,-0.0215,-0.008,1.0452,0.0092,-0.0027,0.004
529,-0.0189,-0.0105,1.0463,0.0091,-0.0043,0.0064
530,-0.0204,-0.0095,1.0492,0.0108,-0.0025,0.0075
531,-0.0214,-0.0087,1.0476,0.0073,-0.0036,0.0107
532,-0.0222,-0.0081,1.0468,0.0105,-0.0033,0.0133
533,-0.0217,-0.0105,1.0469,0.0085,-0.0032,0.0126
534,-0.024,-0.0106,1.0458,0.0091,-0.0024,0.0133
535,-0.0199,-0.0115,1.0499,0.0101,-0.0021,0.0124
536,-0.0223,-0.0129,1.05,0.0077,-0.0043,0.0115
537,-0.0247,-0.0074,1.0487,0.0124,-0.0013,0.0088
538,-0.022,-0.0077,1.0471,0.0089,-0.0053,0.0085
539,-0.0203,-0.0077,1.047,0.0099,-0.0055,0.0044
540,-0.022,-0.0128,1.048,0.0112,-0.0013,0.0056
541,-0.0193,-0.0118,1.0427,0.0103,-0.0025,0.0056
542,-0.0209,-0.0106,1.0483,0.0097,-0.0045,0.0035
543,-0.0178,-0.0099,1.0482,0.0108,-0.0009,-0.0001
544,-0.0182,-0.0118,1.0486,0.0024,-0.0033,0.0
545,-0.0212,-0.0089,1.0484,0.0095,0.002,-0.0037
546,-0.0244,-0.0092,1.049,0.0095,0.0016,-0.0037
547,-0.0259,-0.0081,1.0471,0.0097,-0.0013,-0.0033
548,-0.0229,-0.011,1.0496,0.0069,-0.0089,-0.0013
549,-0.0234,-0.0087,1.0468,0.0083,-0.0057,-0.0005
550,-0.0199,-0.0107,1.0497,0.0104,-0.0047,-0.0035
551,-0.0179,-0.0132,1.0477,0.0073,-0.0056,-0.0047
552,-0.0193,-0.0109,1.0468,0.0091,-0.0041,-0.0044
553,-0.02,-0.0104,1.0482,0.0103,-0.0007,-0.0047
554,-0.0195,-0.008,1.0471,0.0113,0.0015,-0.0028
555,-0.022,-0.009,1.0494,0.0071,-0.0023,0.0
556,-0.0231,-0.0083,1.0485,0.0101,-0.0007,0.0012
557,-0.0217,-0.007,1.0479,0.0083,-0.0011,0.0007
558,-0.0241,-0.0115,1.0505,0.0077,-0.0037,-0.0019
559,-0.024,-0.0096,1.0479,0.0105,-0.002,-0.0037
560,-0.0211,-0.0107,1.0486,0.0095,-0.0013,-0.0033
561,-0.0205,-0.0099,1.0504,0.0112,-0.0035,-0.0047
562,-0.0221,-0.0093,1.0494,0.0085,-0.0029,-0.0056
563,-0.0215,-0.0078,1.0494,0.0095,-0.0015,-0.0049
564,-0.0261,-0.0095,1.0505,0.0085,-0.0041,-0.0013
565,-0.0199,-0.009,1.0474,0.0072,-0.0055,-0.0007
566,-0.0223,-0.012,1.0461,0.0119,-0.0024,-0.0023
567,-0.02,-0.0109,1.0484,0.0079,-0.0035,-0.0043
568,-0.0204,-0.0098,1.051,0.0075,-0.0021,-0.0023
569,-0.0212,-0.0118,1.047,0.0081,-0.0001,-0.0035
570,-0.0218,-0.006,1.0504,0.0103,-0.0011,-0.0028
571,-0.0253,-0.0103,1.0496,0.0087,-0.0016,-0.0023
572,-0.0244,-0.0097,1.049,0.0088,-0.0023,0.0
573,-0.0208,-0.011,1.0489,0.0117,-0.0017,0.0
574,-0.0214,-0.008,1.0485,0.0072,-0.0061,0.0005
575,-0.0231,-0.0096,1.0471,0.0123,-0.0013,0.0005
576,-0.0219,-0.0097,1.0478,0.0101,-0.0008,0.0004
577,-0.019,-0.0112,1.0467,0.0076,-0.0045,-0.0017
578,-0.022,-0.0076,1.0498,0.0107,-0.0015,-0.0009
579,-0.0187,-0.0123,1.0469,0.0067,-0.0009,-0.0024
580,-0.0194,-0.0095,1.048,0.0079,-0.0041,-0.0029
581,-0.0237,-0.0089,1.0491,0.0088,0.0,-0.0032
582,-0.0235,-0.0074,1.0492,0.0109,-0.0005,-0.0057
583,-0.0213,-0.0103,1.0491,0.0052,-0.004,-0.0036
584,-0.0204,-0.009,1.0482,0.0089,-0.0041,0.0003
585,-0.0206,-0.0099,1.0483,0.0107,-0.0028,-0.0009
586,-0.0195,-0.0104,1.0486,0.0107,-0.0036,-0.0008
587,-0.0209,-0.0086,1.049,0.0065,-0.0039,-0.0039
588,-0.0209,-0.0077,1.0475,0.0095,-0.0025,-0.0017
589,-0.0203,-0.0128,1.0482,0.0101,-0.004,-0.0009
590,-0.02,-0.0109,1.049,0.0053,-0.0039,-0.0004
591,-0.02,-0.0072,1.048,0.0071,-0.0023,-0.0027
592,-0.0219,-0.0079,1.051,0.0092,-0.0023,-0.0025
593,-0.0234,-0.0106,1.0496,0.0093,-0.0032,-0.0023
594,-0.0223,-0.0089,1.0485,0.0077,-0.0065,-0.0004
595,-0.0215,-0.0109,1.0483,0.0077,-0.0053,-0.0036
596,-0.0206,-0.0098,1.0486,0.0105,-0.0005,-0.0032
597,-0.0208,-0.0117,1.0453,0.0097,-0.0048,-0.0043
598,-0.0209,-0.0097,1.0493,0.0123,-0.0024,-0.0021
599,-0.0201,-0.0082,1.0509,0.0085,-0.0044,-0.0023
600,-0.0209,-0.0074,1.0485,0.0079,-0.0031,-0.0004
601,-0.0196,-0.01,1.0498,0.0077,-0.0025,0.0
602,-0.0227,-0.0095,1.0486,0.0059,-0.0045,-0.0004
603,-0.0204,-0.0106,1.046,0.0088,-0.0027,0.0012
604,-0.0226,-0.0115,1.0472,0.0137,0.0008,-0.0008
605,-0.0178,-0.0102,1.0469,0.0089,-0.002,0.0007
606,-0.0198,-0.0059,1.0483,0.0096,-0.0009,-0.0009
607,-0.0233,-0.0061,1.0494,0.0091,-0.0001,0.0003
608,-0.0214,-0.0104,1.0484,0.0073,-0.0029,-0.0009
609,-0.0203,-0.0114,1.0505,0.0067,-0.0032,0.0005
610,-0.0254,-0.0098,1.046,0.0091,0.0007,0.0033
611,-0.0209,-0.0101,1.0483,0.0109,0.0,0.0016
612,-0.0225,-0.0059,1.0496,0.0057,-0.0019,0.0009
613,-0.0217,-0.0115,1.0486,0.008,-0.0015,0.0033
614,-0.0227,-0.0094,1.0505,0.0072,-0.0031,0.0025
615,-0.0197,-0.0107,1.0464,0.0061,-0.0044,0.0032
616,-0.022,-0.01,1.0478,0.0073,-0.0052,0.0027
617,-0.019,-0.0104,1.0456,0.0093,-0.0041,0.0035
618,-0.0182,-0.0099,1.0502,0.0117,0.0004,0.0024
619,-0.0198,-0.0089,1.0472,0.0091,-0.0021,0.0028
620,-0.0228,-0.0097,1.05,0.0088,-0.0009,0.0031
621,-0.0228,-0.007,1.0479,0.0077,-0.0008,0.0027
622,-0.0242,-0.0134,1.047,0.0072,-0.0031,0.0017
623,-0.0222,-0.0114,1.0474,0.0056,-0.0035,0.0019
624,-0.0236,-0.0084,1.0491,0.0124,-0.0033,0.002
625,-0.024,-0.0117,1.0497,0.0088,-0.0028,-0.0015
626,-0.0236,-0.012,1.0485,0.0111,-0.0043,-0.0015
627,-0.0186,-0.0098,1.0483,0.0083,-0.0057,-0.0001
628,-0.0193,-0.0081,1.0479,0.0073,-0.0037,-0.0008
629,-0.0189,-0.0078,1.0513,0.0116,0.0,-0.002
630,-0.0178,-0.0129,1.0491,0.006,-0.0021,0.0
631,-0.0202,-0.0103,1.0491,0.0092,-0.002,-0.0003
632,-0.0229,-0.0084,1.0487,0.0081,-0.0007,-0.0001
633,-0.0218,-0.0089,1.0502,0.0057,-0.0023,-0.0008
634,-0.0252,-0.0109,1.0491,0.0057,-0.0027,-0.0012
635,-0.0242,-0.0117,1.0476,0.0121,-0.0021,0.0033
636,-0.0213,-0.0099,1.0522,0.008,-0.0075,0.0049
637,-0.0193,-0.0084,1.0464,0.0092,-0.0039,0.0044
638,-0.0216,-0.0089,1.0472,0.0072,-0.0041,0.004
639,-0.0186,-0.0109,1.0472,0.0075,-0.004,0.0057
640,-0.0184,-0.0092,1.0479,0.0069,-0.0032,0.0059
641,-0.0187,-0.009,1.0473,0.0108,0.0007,0.006
642,-0.0223,-0.0104,1.0477,0.0092,-0.0011,0.0033
643,-0.02,-0.0112,1.0482,0.0092,-0.0012,0.0016
644,-0.0246,-0.012,1.0488,0.0087,-0.0011,0.0011
645,-0.0231,-0.0062,1.0507,0.0083,-0.0035,-0.002
646,-0.0239,-0.0087,1.0496,0.0108,-0.0041,-0.0043
647,-0.0231,-0.01,1.05,0.0089,-0.0021,-0.0027
648,-0.0172,-0.0103,1.0472,0.0112,-0.0043,-0.004
649,-0.0182,-0.01,1.048,0.0093,-0.002,-0.0059
650,-0.0215,-0.0046,1.0469,0.0061,-0.0029,-0.0061
651,-0.0202,-0.0123,1.0479,0.0057,-0.0027,-0.0039
652,-0.019,-0.0099,1.0478,0.0091,-0.0007,0.0019
653,-0.0214,-0.0066,1.0516,0.0061,-0.0025,0.002
654,-0.03,-0.0035,1.0508,0.01,-0.0004,-0.0021
655,-0.0329,-0.0026,1.0485,-0.0019,-0.0077,-0.0052
656,-0.0267,-0.0092,1.0535,-0.0047,-0.0148,-0.0092
657,-0.0238,0.0031,1.0493,0.0011,-0.0064,-0.015
658,-0.0167,-0.0034,1.0434,-0.0184,-0.0063,-0.0398
659,-0.0109,-0.0057,1.0446,-0.0056,0.0004,-0.0602
660,-0.0238,0.0104,1.0532,0.0019,0.0037,-0.0743
661,-0.022,0.0063,1.0529,0.0182,0.0072,-0.0989
662,-0.0286,0.0302,1.0467,0.0077,0.0035,-0.1208
663,-0.0291,0.0226,1.0455,0.0095,0.0061,-0.1261
664,-0.0367,0.0227,1.0507,0.0104,0.0079,-0.1345
665,-0.0287,0.0172,1.0458,0.0165,0.0088,-0.1381
666,-0.0231,0.0085,1.0545,-0.0091,-0.0182,-0.1395
667,-0.0257,0.0181,1.0579,0.0108,-0.0045,-0.1332
668,-0.0051,0.0067,1.0494,0.0087,0.0004,-0.115
669,-0.0155,0.0454,1.049,0.0149,0.0083,-0.1007
670,0.0084,0.0504,1.0491,-0.0008,-0.0073,-0.1117
671,0.0012,0.0836,1.058,0.0285,0.0072,-0.1269
672,0.0193,0.0695,1.0449,-0.0023,-0.0292,-0.137
673,0.0001,0.0405,1.0444,-0.0477,-0.0471,-0.1337
674,-0.0179,0.1381,1.048,0.0786,0.0485,-0.1197
675,0.07,0.0782,1.014,-0.0099,-0.0589,-0.1152
676,0.0124,0.1357,1.0906,-0.02,-0.0731,-0.1079
677,0.0217,0.1138,1.0032,0.0301,0.0341,-0.0739
678,0.033,0.0573,0.9976,-0.0383,-0.0643,-0.0189
679,0.0013,0.0401,1.1459,-0.1406,-0.1648,0.0166
680,-0.0895,0.1031,0.9816,0.1284,0.1209,0.0182
681,-0.028,-0.0342,1.02,0.0041,-0.0043,0.045
682,0.0495,0.0107,1.0432,-0.1707,-0.2174,0.07
683,-0.0438,0.1007,1.0481,-0.0083,-0.0598,0.0827
684,0.1002,0.0694,0.9983,0.022,-0.0253,0.0799
685,0.0448,0.0842,0.9944,0.0348,0.0036,0.0485
686,-0.0531,0.0604,1.138,0.1342,0.1884,0.0425
687,-0.0914,0.1196,1.1139,0.2076,0.247,0.0379
688,0.0294,0.0882,1.0355,0.2288,0.2565,0.0465
689,-0.034,0.0881,1.1785,0.0497,0.0714,0.0029
690,-0.004,-0.0542,1.0434,0.0682,0.0415,0.032
691,-0.0689,-0.032,1.1007,0.0799,0.0908,-0.0194
692,-0.0031,-0.1136,1.0858,-0.0932,-0.104,0.014
693,-0.0806,-0.0402,1.0355,-0.0728,-0.0539,-0.0284
694,-0.0857,-0.1016,0.9893,0.057,0.0903,-0.0061
695,-0.0573,-0.0739,1.1719,-0.0216,0.018,-0.0415
696,-0.0991,-0.0619,1.1298,0.0485,0.0948,-0.0551
697,-0.1161,0.0917,1.0295,0.3947,0.4397,-0.0204
698,0.004,-0.1962,1.167,-0.0266,-0.0088,0.0085
699,-0.0997,0.0079,1.1875,-0.1533,-0.1501,-0.0053
700,0.0634,0.0349,0.8498,0.1226,0.0997,0.0357
701,-0.1439,0.0661,1.2595,0.0979,0.0881,0.0178
702,0.0182,-0.0898,1.0345,0.1546,0.2117,0.0952
703,-0.0356,-0.0222,1.0377,0.0273,0.0112,0.1001
704,-0.0535,-0.1142,1.015,0.017,0.0284,0.0985
705,-0.0553,-0.0645,1.0949,-0.079,-0.0908,0.13
706,-0.0205,-0.018,0.9423,0.1605,0.123,0.12
707,0.0022,-0.0179,1.085,0.0134,0.0091,0.0875
708,-0.0673,-0.0443,1.0848,0.055,0.1216,0.0513
709,-0.0566,0.0037,1.0677,0.1449,0.2117,0.0296
710,0.0043,-0.0856,1.0926,-0.0093,-0.0268,0.0107
711,-0.1209,-0.0397,0.9968,0.0264,0.0148,-0.0332
712,0.006,-0.0522,1.0858,-0.0152,-0.0499,-0.0519
713,-0.0804,-0.0121,1.1418,-0.0025,-0.0013,-0.0893
714,-0.0203,-0.0278,0.9296,0.1443,0.1375,-0.0981
715,0.091,-0.0374,1.0873,-0.1767,-0.2225,-0.0862
716,-0.1245,0.0026,0.9891,0.1535,0.1736,-0.1363
717,0.007,-0.0527,0.9371,0.0471,0.0559,-0.1172
718,-0.0789,-0.0552,1.2036,-0.2004,-0.2144,-0.1245
719,-0.109,0.0356,0.9675,0.1077,0.0924,-0.1162
720,0.0487,-0.0601,1.1053,-0.0779,-0.1156,-0.0818
721,-0.1185,0.0151,1.0892,0.0224,0.0092,-0.0897
722,0.0164,-0.0203,1.0616,0.0803,0.1189,-0.0811
723,-0.0115,-0.0138,1.1043,-0.0719,-0.0888,-0.0632
724,-0.0513,0.046,0.9424,0.1565,0.1222,-0.0545
725,0.1315,0.0275,1.0591,-0.0696,-0.168,-0.0192
726,-0.1594,0.0682,1.0571,0.0256,0.0549,-0.1221
727,0.0646,-0.0079,0.9933,0.0587,0.1174,-0.051
728,-0.0774,-0.0161,1.1383,-0.0274,0.0286,-0.0401
729,-0.0497,0.0161,1.0778,0.1715,0.2244,-0.0003
730,-0.0171,0.0052,1.0379,0.1289,0.108,0.0344
731,0.0356,0.0059,1.1053,-0.0707,-0.1189,0.0433
732,-0.0767,0.0241,0.979,0.0278,0.0358,0.0513
733,0.0159,-0.0262,1.0943,-0.0137,0.0197,0.0651
734,-0.0194,0.0245,1.0355,0.0136,-0.0025,0.0619
735,0.0188,-0.1061,0.9931,-0.0687,-0.0446,0.0578
736,-0.075,-0.0243,1.1365,-0.0353,-0.0253,0.0454
737,-0.0791,0.0152,0.9992,0.0699,0.0835,0.03
738,-0.0071,-0.0701,1.0936,-0.1137,-0.1212,0.0126
739,-0.1044,-0.0091,1.0986,-0.0075,0.0096,0.0045
740,-0.0668,-0.0826,1.0558,0.0788,0.1023,0.0141
741,-0.0008,-0.0213,1.0524,-0.036,-0.0796,0.0129
742,-0.006,-0.0513,1.0186,-0.0824,-0.1189,0.0063
743,-0.0611,0.0045,1.0929,0.0899,0.0594,-0.0111
744,0.0387,-0.0552,0.9869,-0.0526,-0.0438,-0.0075
745,-0.0702,-0.0184,1.0849,0.0715,0.0734,-0.0193
746,0.0436,-0.0168,1.0016,-0.0471,-0.0615,-0.0222
747,-0.0284,-0.0127,1.0632,0.0547,0.0659,-0.0473
748,0.0093,-0.0186,1.0021,-0.0019,-0.0248,-0.0438
749,-0.0894,-0.0225,1.0421,0.0461,0.0523,-0.0453
750,0.0002,-0.0414,1.0778,-0.0654,-0.0668,-0.0603
751,-0.0657,0.0245,1.049,0.0495,0.0632,-0.0699
752,-0.0353,-0.1131,1.059,0.0068,0.0459,-0.0607
753,0.0245,0.0052,1.0969,-0.076,-0.1048,-0.0356
754,-0.0936,0.0079,0.9794,0.1766,0.1306,-0.022
755,0.0956,-0.0691,1.0731,-0.0819,-0.1204,-0.0115
756,-0.0562,0.027,1.0151,-0.0164,-0.0126,-0.0103
757,-0.0765,0.0881,1.0627,0.2164,0.2467,0.0081
758,0.0353,-0.0367,1.0172,0.0369,0.0001,0.0232
759,-0.0173,-0.0067,1.0472,-0.1719,-0.2109,0.0461
760,-0.0762,-0.0017,1.0735,-0.025,-0.0166,0.0575
761,-0.0405,0.0109,1.0861,0.1246,0.1465,0.0823
762,0.0356,-0.0521,1.028,-0.0455,-0.0628,0.1064
763,-0.0956,0.0233,1.1651,-0.0144,-0.0044,0.0931
764,0.0352,-0.0173,1.0096,0.0573,0.035,0.1081
765,-0.0055,-0.0188,1.056,-0.0794,-0.1009,0.1169
766,-0.0211,-0.0422,0.9969,-0.0242,-0.0356,0.1156
767,-0.0538,0.0135,1.0014,0.0747,0.07,0.1065
768,0.0171,-0.1,1.0056,-0.0236,-0.0358,0.1061
769,-0.1009,0.0747,1.0499,0.1325,0.1156,0.0686
770,0.0075,-0.14,0.9996,0.0087,0.0364,0.0422
771,-0.0335,0.0021,1.0823,-0.1007,-0.113,0.0453
772,-0.0409,-0.0441,0.9691,0.1655,0.1716,0.0394
773,0.0275,-0.0237,1.0655,-0.1028,-0.1266,0.0485
774,-0.0606,-0.064,1.0212,-0.0028,0.0149,0.0336
775,-0.012,0.0095,1.0177,0.0321,0.022,0.0306
776,-0.058,-0.0576,1.0197,0.0113,0.0296,0.006
777,0.0161,-0.0226,1.0431,-0.0047,-0.0391,-0.0081
778,-0.0405,-0.0012,1.0057,0.0623,0.0405,-0.0399
779,-0.0017,-0.0176,1.0743,-0.0553,-0.0507,-0.0505
780,-0.0244,-0.0504,1.049,0.062,0.0806,-0.0529
781,-0.0494,-0.0559,1.0541,-0.0016,0.0146,-0.0415
782,-0.0759,0.0471,1.0405,0.0814,0.0578,-0.0292
783,-0.044,-0.0227,1.0583,0.1273,0.1328,-0.0407
784,-0.0177,-0.0328,1.0718,-0.1877,-0.1908,-0.0264
785,-0.0714,-0.0137,1.0233,-0.016,-0.0003,0.0095
786,0.0036,-0.0306,1.079,0.0678,0.0599,0.0437
787,-0.0137,-0.0321,1.011,0.0699,0.026,0.0651
788,0.0292,-0.0408,1.0474,0.0146,-0.0208,0.0803
789,-0.0504,0.0269,1.0756,0.0586,0.0774,0.0742
790,-0.0174,-0.0552,1.069,-0.0518,0.026,0.0682
791,-0.0328,-0.0207,1.0337,-0.0001,0.0153,0.0664
792,-0.0103,-0.062,1.0069,-0.0368,-0.0716,0.0537
793,-0.0869,-0.0031,1.0464,0.0499,0.0144,0.0306
794,0.0678,-0.0184,1.0231,0.0076,-0.0391,-0.006
795,-0.0681,-0.0248,1.0302,-0.0361,-0.0451,-0.0238
796,-0.0536,-0.0153,1.0905,0.0499,0.0955,-0.0333
797,0.0402,-0.0848,1.0238,-0.0463,-0.0517,-0.0318
798,-0.0909,-0.0089,1.0452,0.0784,0.0751,-0.0252
799,-0.0161,-0.0458,1.0539,0.0823,0.0758,-0.0142
800,-0.0029,-0.0741,1.0756,-0.0779,-0.1052,-0.0256
801,-0.0727,0.008,1.0198,0.0264,0.0234,-0.0005
802,-0.0295,-0.0484,1.0504,0.0071,0.013,0.0228
803,-0.0121,-0.0543,1.0609,-0.0056,-0.0216,0.0218
804,-0.0327,-0.0475,1.0421,0.0088,0.0076,0.0193
805,-0.0255,-0.077,1.0676,-0.0087,-0.012,0.0194
806,-0.0288,-0.0511,1.0396,0.0589,0.0393,0.034
807,0.0051,-0.0601,1.0427,-0.0044,-0.0209,0.0387
808,-0.042,-0.0663,1.0482,0.0189,0.0103,0.028
809,-0.0245,-0.0771,1.0443,-0.0101,-0.0045,0.0181
810,-0.0142,-0.0836,1.0452,0.0036,-0.0096,0.0221
811,-0.03,-0.0621,1.0484,0.0132,0.0011,0.0189
812,-0.0244,-0.0602,1.051,0.0158,0.0095,0.0047
813,-0.0283,-0.0482,1.0456,0.0007,-0.0031,-0.0084
814,-0.0361,-0.0381,1.0469,-0.0037,-0.0056,-0.0134
815,-0.0236,-0.0237,1.0475,0.0509,0.0292,-0.0096
816,-0.0271,-0.0141,1.0472,0.0069,-0.0186,-0.0044
817,-0.0241,-0.008,1.0485,0.0193,-0.0033,0.0041
818,-0.0287,-0.0029,1.051,0.0169,0.0081,0.0081
819,-0.037,-0.003,1.0493,0.0024,-0.0092,0.0164
820,-0.0287,0.003,1.0493,0.0104,-0.0033,0.0111
821,-0.0275,-0.0074,1.0469,0.006,-0.0043,-0.0007
822,-0.0238,-0.0148,1.0497,-0.0043,-0.0116,-0.0032
823,-0.026,-0.0105,1.0465,0.0079,0.0023,-0.0033
824,-0.0229,-0.0204,1.0503,0.0043,0.0,0.0
825,-0.0281,-0.0165,1.0494,0.0117,0.0033,-0.002
826,-0.0356,-0.0099,1.0506,0.0133,0.0025,-0.0012
827,-0.0344,-0.0123,1.049,0.0149,-0.0005,-0.0003
828,-0.0307,-0.0044,1.0511,0.0079,-0.0099,0.0023
829,-0.0275,-0.0096,1.046,0.0052,-0.0093,0.0065
830,-0.0143,-0.0086,1.0452,0.0095,-0.0036,0.0075
831,-0.0178,-0.0123,1.0469,0.0067,0.0035,0.0032
832,-0.025,-0.017,1.0469,0.0037,0.0039,-0.0013
833,-0.0348,-0.0186,1.049,0.0059,0.0043,-0.0049
834,-0.0371,-0.0176,1.0519,0.0177,0.0081,-0.0043
835,-0.0263,-0.0173,1.0535,0.0024,-0.0181,-0.0049
836,-0.0215,0.0063,1.0435,0.0019,-0.0168,-0.0031
837,-0.0255,-0.0122,1.0489,0.019,0.0124,0.0008
838,-0.0308,-0.0205,1.0524,0.0016,-0.0024,-0.0028
839,-0.0309,-0.0113,1.0503,0.0142,0.0056,-0.0056
840,-0.0281,-0.015,1.0485,0.016,0.0071,-0.0064
841,-0.0164,-0.0045,1.0461,0.0105,-0.0023,-0.0009
842,-0.0326,-0.0118,1.0462,0.016,0.0053,-0.0068
843,-0.0233,-0.0103,1.0466,0.0008,-0.0141,-0.0067
844,-0.0271,-0.0109,1.0453,0.0126,0.0009,-0.0107
845,-0.019,-0.0114,1.0487,0.0084,-0.0009,-0.008
846,-0.0295,-0.0169,1.0475,0.0174,0.0072,-0.0084
847,-0.0278,-0.0127,1.0486,0.0097,-0.0013,-0.0003
848,-0.0324,-0.0098,1.0502,0.0144,0.0017,0.0007
849,-0.0302,-0.0092,1.0502,0.01,-0.0011,-0.0041
850,-0.0262,-0.013,1.047,0.0099,-0.0012,-0.0028
851,-0.0301,-0.0162,1.0499,0.0093,-0.0037,0.0023
852,-0.0248,-0.015,1.0457,0.0088,-0.0044,0.0044
853,-0.028,-0.0129,1.0461,0.0107,-0.0064,0.0067
854,-0.0287,-0.0106,1.0467,0.0174,0.0016,0.0056
855,-0.0269,-0.0129,1.0485,0.0109,-0.0057,0.0108
856,-0.0284,-0.0195,1.0485,0.0134,-0.0092,0.0173
857,-0.025,-0.0163,1.0475,0.0221,-0.0027,0.0301
858,-0.0248,-0.0157,1.0497,0.0197,-0.0041,0.0478
859,-0.0192,-0.0172,1.0468,0.004,-0.0067,0.0663
860,-0.0155,-0.0195,1.0457,0.0016,-0.0025,0.0748
861,-0.024,-0.0182,1.0452,0.0196,0.0096,0.08
862,-0.024,-0.0211,1.0499,0.0198,0.0077,0.0814
863,-0.0357,-0.0231,1.0483,0.0047,-0.0032,0.0794
864,-0.0457,-0.0276,1.0509,0.0061,0.0004,0.0698
865,-0.0364,-0.0391,1.0489,0.0091,-0.0116,0.0557
866,-0.0312,-0.0353,1.0494,0.013,-0.0128,0.0375
867,-0.0244,-0.0419,1.0454,0.015,-0.0084,0.015
868,-0.0179,-0.0472,1.0428,0.0037,-0.0133,0.0008
869,-0.0196,-0.0599,1.0478,0.0096,-0.0013,-0.0033
870,-0.0236,-0.0698,1.0464,0.0116,-0.0001,-0.0033
871,-0.0146,-0.0825,1.0457,0.0005,-0.0099,-0.0036
872,-0.0103,-0.0884,1.042,0.0128,0.0011,-0.0067
873,-0.0267,-0.0569,1.0499,0.0423,0.0252,-0.0105
874,-0.0359,-0.0765,1.0383,-0.0008,-0.0081,-0.0268
875,-0.037,-0.0645,1.0521,0.014,-0.0035,-0.0437
876,-0.0251,-0.0823,1.032,0.0032,-0.0174,-0.0409
877,-0.0668,-0.0831,1.0376,0.023,0.0228,-0.0208
878,-0.0024,-0.0755,1.0573,0.0328,0.0091,-0.0008
879,-0.0034,-0.1044,1.044,-0.0177,-0.0652,0.0142
880,-0.052,-0.0681,1.062,0.0197,0.0182,0.0365
881,0.0344,-0.0955,1.0207,-0.0427,-0.0784,0.0758
882,-0.0947,-0.1124,1.0726,0.0069,0.0071,0.0905
883,0.0497,-0.013,1.0413,-0.0728,-0.1085,0.1133
884,-0.0613,-0.0792,1.0401,0.0909,0.0824,0.0928
885,0.0199,-0.064,1.1616,-0.1314,-0.1683,0.1033
886,-0.0662,0.0173,0.938,0.0992,0.0401,0.0816
887,0.058,-0.0606,1.0202,-0.0232,-0.0804,0.0651
888,-0.0739,-0.0442,1.0913,0.0108,0.004,0.0252
889,0.0404,-0.0826,0.9467,0.0696,0.0441,0.0071
890,-0.0775,-0.0641,1.0912,-0.0664,-0.0996,-0.0305
891,-0.1722,-0.0848,1.0887,-0.0454,0.0188,-0.0706
892,0.0487,-0.1099,1.0882,-0.0951,-0.1346,-0.0437
893,-0.0969,-0.0002,1.1127,-0.1675,-0.2574,-0.0503
894,-0.0527,-0.0025,0.9868,0.1387,0.1053,-0.024
895,-0.0057,-0.1218,1.1415,-0.0577,-0.1083,-0.0021
896,0.0693,0.0067,1.0443,-0.2077,-0.2774,0.0178
897,-0.0954,0.0823,1.0593,0.2366,0.2037,0.014
898,0.0492,-0.1128,1.0977,0.0481,0.0659,0.0318
899,0.0128,0.0045,1.0469,-0.1901,-0.2403,0.037
900,-0.1292,-0.0151,0.9805,-0.0399,-0.0554,0.0125
901,-0.0627,-0.0291,1.1725,0.0611,0.0402,0.0304
902,-0.0422,-0.0666,1.2148,-0.1848,-0.2025,0.0213
903,-0.0977,0.0605,0.9232,0.0822,0.0535,0.0087
904,0.0147,-0.1078,1.0411,0.0509,-0.0108,0.0144
905,-0.1827,-0.0338,1.0333,-0.0744,-0.1124,-0.0301
906,-0.0216,-0.0717,1.1791,-0.0933,-0.094,0.0045
907,-0.019,0.0639,0.9989,0.0719,0.0117,0.0015
908,-0.0031,-0.045,1.017,-0.0529,-0.1567,0.0024
909,0.0062,-0.0492,1.0728,-0.1571,-0.2342,0.01
910,0.0428,-0.0057,1.1636,-0.1899,-0.2358,0.0222
911,-0.1351,0.1034,0.9892,0.2939,0.3073,-0.0126
912,-0.0369,0.0318,1.0235,0.1101,0.132,0.0194
913,0.0012,0.0278,1.0327,-0.0443,-0.0728,0.0036
914,0.0374,0.0139,1.0779,-0.1202,-0.1435,0.0346
915,-0.0121,-0.0507,1.0237,0.1823,0.2471,0.0897
916,0.0842,-0.0838,1.2471,-0.0489,0.0273,0.1166
917,0.0464,-0.0447,1.0438,0.0883,0.1863,0.1816
918,-0.0829,-0.0148,1.1358,0.3056,0.3672,0.1104
919,0.0421,-0.1422,1.0414,-0.2093,-0.2027,0.1125
920,-0.0825,0.0459,1.0411,-0.0577,-0.0703,0.0318
921,0.09,-0.071,1.1688,0.0005,-0.0071,0.0372
922,-0.0063,-0.0985,0.873,-0.0044,0.0031,-0.0545
923,-0.0792,0.0841,1.2006,-0.1779,-0.2125,-0.1634
924,0.0737,-0.1331,0.7969,0.1932,0.1125,-0.0305
925,0.1376,-0.1674,1.1445,-0.4079,-0.5077,-0.0992
926,-0.1063,0.0988,0.8732,0.0935,0.0434,-0.282
927,0.0825,0.0247,0.9967,0.269,0.3383,-0.2278
928,0.1098,-0.0344,0.9491,-0.2423,-0.2949,-0.2527
929,-0.1234,0.0484,1.0588,0.0634,0.045,-0.2738
930,0.1059,0.0621,1.1088,0.09,0.1375,-0.2083
931,-0.0991,0.0567,0.8207,0.2489,0.3049,-0.2481
932,0.101,-0.1325,1.1802,-0.3141,-0.2674,-0.1297
933,-0.2189,0.1805,0.8005,0.151,0.1052,-0.2342
934,0.0693,-0.0846,0.896,0.1842,0.1232,-0.0783
935,-0.0447,-0.0063,0.996,-0.1891,-0.1847,-0.1422
936,-0.0256,-0.0089,1.0841,0.0695,0.0976,-0.0911
937,0.0007,0.0667,0.8879,0.1937,0.2256,-0.0983
938,-0.0245,-0.0242,1.0679,-0.0172,-0.0276,-0.1248
939,-0.1766,-0.0474,1.0441,-0.064,-0.0361,-0.1732
940,0.0428,0.0045,0.8467,0.1156,0.0148,-0.1324
941,-0.1365,0.0541,1.2337,-0.1939,-0.2545,-0.2254
942,0.049,0.0908,0.9411,0.1672,0.122,-0.1178
943,0.0088,0.0756,1.0563,-0.135,-0.162,-0.1298
944,-0.0372,0.032,1.0522,-0.0089,-0.0158,-0.125
945,0.011,0.0724,0.9835,0.0185,-0.0523,-0.0822
946,-0.0504,0.0229,0.9752,0.0949,0.0395,-0.0381
947,-0.0381,0.0988,1.0291,-0.0237,-0.0682,0.004
948,-0.0497,0.0339,1.0846,-0.1811,-0.1824,0.0582
949,-0.143,0.0832,1.0883,0.1766,0.1951,0.0558
950,-0.0353,-0.0203,1.032,-0.0712,-0.0953,0.1156
951,-0.0773,-0.0424,0.9501,-0.0023,-0.0107,0.1261
952,-0.0565,0.0856,1.1229,0.0108,0.0337,0.1241
953,-0.0876,-0.0445,0.9732,0.085,0.092,0.0808
954,-0.02,0.0383,1.1046,-0.0695,-0.1196,0.0816
955,-0.1068,0.0756,1.04,0.0852,0.1354,0.0095
956,-0.0729,-0.0532,1.006,-0.0525,0.0177,-0.0393
957,-0.155,0.0654,1.1373,-0.0174,0.0593,-0.086
958,-0.082,-0.0813,0.9285,0.09,0.0675,-0.0838
959,-0.095,-0.0624,1.0152,-0.1308,-0.2108,-0.0738
960,-0.1155,0.033,1.0652,0.059,-0.0447,-0.0374
961,-0.0573,0.0076,1.0051,0.1826,0.1093,-0.0178
962,0.0814,-0.0895,1.0111,-0.239,-0.2357,-0.0108
963,-0.075,0.0921,1.1847,-0.1855,-0.1129,-0.013
964,-0.0944,-0.0159,0.9871,0.2959,0.3583,-0.0085
965,0.0974,-0.1236,1.0414,-0.0826,-0.1184,0.0523
966,-0.0395,0.0347,1.0734,-0.1794,-0.2367,0.0542
967,-0.0021,-0.0032,0.9549,0.1495,0.1209,0.0602
968,0.051,-0.0267,1.0737,-0.1722,-0.226,0.0726
969,-0.0636,0.0329,1.0384,0.0418,0.0405,0.0631
970,0.0472,-0.0526,1.0134,-0.0156,-0.0019,0.0511
971,-0.0252,-0.0248,1.0746,-0.0993,-0.0672,0.0383
972,0.0266,0.0671,1.1844,0.0458,0.0559,0.0523
973,-0.0562,0.0365,0.9854,0.1421,0.128,0.0434
974,0.0259,-0.0184,1.0911,0.0119,0.0177,0.057
975,-0.0925,0.0537,1.0391,0.021,0.0304,0.0996
976,-0.0081,-0.0425,1.0878,-0.0129,0.0012,0.1403
977,-0.0444,0.0647,1.0361,-0.0668,-0.1079,0.1635
978,-0.0164,0.0095,0.9766,0.0156,-0.0169,0.166
979,0.0242,0.0048,1.0117,-0.0535,-0.098,0.1558
980,-0.0001,0.0457,1.0073,-0.027,-0.0502,0.1402
981,0.0351,0.036,1.0574,0.0518,0.0262,0.0913
982,-0.0327,0.059,1.0094,0.0103,0.0156,0.0374
983,0.0215,0.0463,1.0477,0.0154,0.0261,0.0099
984,0.0001,0.0447,1.0781,-0.0634,-0.0577,-0.0357
985,-0.0139,0.0535,1.0594,0.0754,0.057,-0.0783
986,0.0065,0.0291,1.0497,-0.0165,-0.0439,-0.1194
987,-0.0009,0.0215,1.053,0.0244,0.02,-0.1493
988,0.0038,0.019,1.0573,-0.0069,-0.0023,-0.1582
989,-0.0175,0.0054,1.0493,0.0119,0.0005,-0.1409
990,-0.0093,0.0189,1.0507,0.0333,0.0104,-0.1117
991,-0.0082,0.0296,1.0504,0.0073,-0.0005,-0.0818
992,-0.0165,0.0377,1.0527,0.0117,0.0146,-0.0447
993,-0.0177,0.0345,1.0497,0.0004,-0.0043,-0.0028
994,-0.0216,0.0249,1.0502,0.0108,0.0024,0.0229
995,-0.0139,-0.0142,1.0534,-0.0281,-0.025,0.0438
996,-0.0243,-0.0063,1.0446,-0.0045,-0.0037,0.0483
997,-0.0124,-0.0327,1.0507,0.0201,0.0065,0.0454
998,-0.0193,-0.0279,1.043,0.0128,-0.0076,0.0362
999,-0.0233,-0.0246,1.0438,0.0126,0.0056,0.0238
1000,-0.0303,-0.0166,1.053,0.0153,0.0073,0.0097
1001,-0.0375,-0.0261,1.046,-0.0063,-0.0197,-0.0079
1002,-0.0239,-0.0205,1.0495,0.0264,0.0028,-0.0174
1003,-0.0188,-0.0106,1.0479,0.0115,-0.013,-0.0168
1004,-0.0059,-0.0097,1.0471,0.0047,-0.0152,-0.0168
1005,-0.0063,-0.011,1.0475,0.0087,0.0,-0.018
1006,-0.0118,-0.0171,1.0482,0.0124,0.0079,-0.0153
1007,-0.0189,-0.0226,1.047,0.0081,0.0057,-0.0116
1008,-0.0289,-0.0095,1.0524,0.0164,0.0085,-0.0032
1009,-0.0351,-0.0073,1.051,0.0209,0.0121,0.0012
1010,-0.028,-0.0103,1.0544,0.002,-0.0116,-0.0007
1011,-0.0234,-0.0109,1.0459,-0.0001,-0.0107,-0.0005
1012,-0.0204,-0.0189,1.0494,0.0126,-0.0012,-0.0021
1013,-0.0175,-0.0204,1.0479,0.0033,-0.0104,-0.0027
1014,-0.019,-0.018,1.0482,0.0067,-0.0081,-0.0024
1015,-0.0206,-0.0134,1.0459,0.0162,0.0049,-0.0049
1016,-0.0153,-0.0145,1.0473,0.0077,-0.0027,-0.0079
1017,-0.0154,-0.014,1.0504,0.0064,-0.0039,-0.0095
1018,-0.0172,-0.0113,1.0475,0.014,0.0051,-0.0036
1019,-0.0226,-0.0148,1.0499,0.0146,0.0075,-0.0033
1020,-0.0254,-0.0166,1.0491,0.0053,-0.0049,-0.0008
1021,-0.0278,-0.017,1.0465,0.01,0.0012,-0.0008
1022,-0.0228,-0.0116,1.0469,0.012,0.0004,-0.0027
1023,-0.0149,-0.0175,1.0479,-0.0004,-0.0148,-0.0069
1024,-0.024,-0.0089,1.0464,0.0073,-0.0075,-0.0088
1025,-0.0165,-0.0182,1.0458,0.0092,-0.0011,-0.0093
1026,-0.0188,-0.0136,1.048,0.0069,-0.0025,-0.0105
1027,-0.0246,-0.0153,1.0472,0.0109,-0.0024,-0.0085
1028,-0.0256,-0.0143,1.0482,0.0061,-0.0043,-0.0092
1029,-0.0229,-0.0103,1.0477,0.0076,-0.0029,-0.0134
1030,-0.0179,-0.0188,1.0488,0.0047,-0.0049,-0.0144
1031,-0.0181,-0.0183,1.0487,0.0043,-0.0075,-0.0133
1032,-0.0188,-0.0156,1.0482,0.015,0.0059,-0.0115
1033,-0.0177,-0.0179,1.0496,0.0091,0.0011,-0.0152
1034,-0.0219,-0.0139,1.0479,0.0031,-0.0043,-0.0154
1035,-0.0234,-0.0118,1.0471,0.0101,0.004,-0.0185
1036,-0.029,-0.0148,1.0491,0.0084,-0.0016,-0.0204
1037,-0.0243,-0.0194,1.0496,-0.0051,-0.0153,-0.0164
1038,-0.0227,-0.0138,1.0449,0.0069,-0.0045,-0.0192
1039,-0.0162,-0.0168,1.0497,0.0052,-0.0052,-0.0268
1040,-0.0146,-0.0219,1.0477,0.0004,-0.0075,-0.0393
1041,-0.0184,-0.0173,1.0456,0.0109,0.0061,-0.0483
1042,-0.0181,-0.023,1.0491,0.0075,0.0003,-0.0559
1043,-0.0242,-0.0134,1.0469,0.0057,0.0005,-0.0581
1044,-0.0248,-0.0116,1.051,0.0129,0.0055,-0.0569
1045,-0.0208,-0.0136,1.0504,0.0072,-0.0001,-0.0578
1046,-0.0259,-0.0189,1.0449,0.0044,-0.0027,-0.0597
1047,-0.0401,-0.0221,1.0718,0.0212,-0.0126,-0.0515
1048,-0.035,0.0648,1.0092,0.0727,0.0036,-0.0957
1049,0.0615,0.0667,1.0664,0.0706,-0.0226,-0.1168
1050,0.0594,0.0685,1.0369,-0.0542,-0.0999,-0.1256
1051,0.0538,0.0583,1.0235,-0.0091,-0.0069,-0.0945
1052,0.0159,0.0187,1.0378,-0.0033,0.0245,-0.0431
1053,-0.0263,0.0198,1.0484,-0.0387,0.0017,0.0292
1054,-0.0327,0.049,1.053,0.0184,0.0867,0.0927
1055,-0.1041,-0.093,1.031,-0.0867,0.021,0.116
1056,-0.1483,-0.0552,1.0825,-0.0029,0.0185,0.1525
1057,-0.0979,-0.0703,1.0827,0.0714,-0.002,0.181
1058,-0.065,-0.1269,1.048,-0.0519,-0.1262,0.2284
1059,-0.0633,-0.08,1.0662,-0.0152,-0.0397,0.261
1060,0.0543,-0.1213,1.0404,0.0712,0.0296,0.2603
1061,-0.0048,-0.049,1.0414,-0.0451,-0.1052,0.1872
1062,0.0156,-0.0287,1.0284,0.1036,0.0782,0.127
1063,0.0345,-0.0614,1.0506,0.0092,-0.0144,0.0499
1064,-0.0219,-0.0126,1.0422,0.0053,0.0193,-0.008
1065,-0.0143,-0.0283,1.0454,0.0189,0.0585,-0.0349
1066,-0.0377,-0.0187,1.0617,-0.0016,0.0156,-0.0558
1067,-0.062,-0.0049,1.0535,0.0041,0.0039,-0.0742
1068,-0.0408,-0.0026,1.0478,0.0375,0.0202,-0.1068
1069,-0.0519,0.0054,1.0544,-0.0007,-0.0217,-0.1459
1070,-0.0379,-0.0195,1.0479,-0.0142,-0.0375,-0.1728
1071,-0.0132,-0.0367,1.0448,0.0035,-0.0221,-0.1836
1072,-0.0013,-0.0353,1.0455,0.0157,-0.0194,-0.1917
1073,0.0081,-0.0212,1.0455,0.0269,-0.0059,-0.1899
1074,0.0011,-0.0048,1.0451,0.0326,0.0112,-0.1736
1075,-0.0112,0.0005,1.0393,0.0218,0.0157,-0.1489
1076,-0.0233,0.0209,1.048,0.0333,0.0341,-0.1134
1077,-0.0288,-0.0009,1.0519,-0.0134,-0.0088,-0.0639
1078,-0.0438,-0.0026,1.0487,0.0079,-0.0036,-0.0055
1079,-0.0299,-0.0112,1.0475,0.0104,-0.0099,0.0418
1080,-0.0157,-0.0155,1.0485,0.0096,-0.0186,0.0684
1081,-0.0291,-0.0127,1.0469,0.0113,-0.0266,0.1047
1082,-0.0084,-0.021,1.0493,0.0185,-0.0237,0.1439
1083,0.0029,-0.0148,1.0431,0.0238,-0.0096,0.1708
1084,-0.0165,-0.011,1.0476,0.0069,-0.006,0.1823
1085,-0.0178,-0.0264,1.0525,-0.0154,-0.006,0.1775
1086,-0.0328,-0.0251,1.0468,-0.004,-0.0004,0.1739
1087,-0.0249,-0.0402,1.0492,0.0028,-0.0156,0.1555
1088,-0.0096,-0.0246,1.0464,0.0205,-0.0132,0.1142
1089,0.0024,-0.0207,1.0465,0.0286,-0.0015,0.0678
1090,-0.0058,-0.015,1.047,0.0063,0.0076,0.0194
1091,-0.0138,-0.0289,1.0522,-0.0109,0.0056,-0.0169
1092,-0.0396,-0.0344,1.0513,0.0113,0.0172,-0.0317
1093,-0.0504,-0.0492,1.0516,0.0202,-0.0003,-0.0242
1094,-0.0432,-0.0544,1.0507,0.0182,-0.0274,-0.0194
1095,-0.0164,-0.0529,1.0432,0.0156,-0.0333,-0.0109
1096,-0.0016,-0.0514,1.0477,0.0126,-0.01,-0.0105
1097,-0.0112,-0.0592,1.0397,0.0003,0.0104,-0.0129
1098,-0.0068,-0.0629,1.0493,-0.0121,0.0121,0.0015
1099,-0.0081,-0.0797,1.0446,0.01,0.0174,0.01
1100,-0.0189,-0.0309,1.0467,0.017,0.0088,0.0088
1101,-0.0125,-0.0316,1.046,0.0338,0.0202,-0.0125
1102,0.0019,-0.0077,1.0567,0.0188,0.0036,-0.043
1103,-0.0696,0.0196,1.047,0.0389,0.0353,-0.0846
1104,-0.0256,-0.0273,1.0612,-0.0009,-0.0153,-0.1213
1105,-0.0933,0.0333,1.0448,0.0257,-0.0025,-0.1256
1106,0.0016,-0.0394,1.0391,-0.0053,-0.0438,-0.1077
1107,-0.0175,0.005,1.0305,0.0052,-0.0224,-0.0971
1108,-0.0025,0.0343,1.0477,0.0411,0.0541,-0.0903
1109,0.0201,-0.0078,1.0425,0.0121,0.0165,-0.0919
1110,-0.0027,0.0349,1.0565,0.0229,0.0253,-0.0952
1111,0.0103,0.0231,1.0455,0.0383,0.0446,-0.0728
1112,-0.011,0.0206,1.0469,0.0125,0.0084,-0.039
1113,-0.0139,0.0503,1.0499,0.0272,0.0329,-0.0213
1114,-0.0061,0.042,1.0555,-0.0095,0.0192,-0.0126
1115,-0.0589,0.04,1.0546,-0.0097,0.0356,-0.0048
1116,-0.0587,0.0146,1.0511,-0.0342,-0.0024,0.0071
1117,-0.0382,0.008,1.0496,-0.0217,-0.0349,0.0047
1118,-0.0209,0.0214,1.0563,0.0045,-0.0276,-0.0137
1119,0.0063,-0.0214,1.035,0.0004,-0.0241,-0.0361
1120,0.0208,0.0034,1.0426,0.0222,0.0157,-0.0434
1121,0.0072,-0.0095,1.0419,-0.0019,0.0033,-0.0382
1122,-0.0182,-0.0099,1.0489,0.0168,0.0277,-0.0317
1123,-0.0504,-0.0112,1.0482,0.0354,0.0364,-0.0181
1124,-0.051,-0.0273,1.0495,-0.0088,-0.013,0.0043
1125,-0.0543,-0.0256,1.05,0.0073,-0.0043,0.0096
1126,-0.0365,-0.0353,1.0516,-0.0011,-0.0204,0.022
1127,-0.0161,-0.012,1.0433,0.0096,-0.0181,0.0177
1128,-0.0011,-0.0214,1.0453,0.0021,-0.0248,-0.0016
1129,0.0039,-0.0128,1.0427,0.0093,-0.0061,-0.0088
1130,-0.0131,-0.0146,1.0452,0.0076,0.0045,-0.0004
1131,-0.0189,-0.0165,1.0533,0.0121,0.0096,0.0097
1132,-0.0312,-0.0121,1.0504,0.0068,0.0047,0.0099
1133,-0.0402,-0.0131,1.0502,0.0144,0.0049,0.0108
1134,-0.0314,-0.0148,1.0532,0.0063,-0.0116,0.0067
1135,-0.0198,-0.0142,1.0466,0.0045,-0.016,0.0065
1136,-0.0154,-0.0123,1.0522,0.0076,-0.0096,0.0041
1137,-0.008,-0.0129,1.0455,0.0081,-0.0008,-0.0001
1138,-0.0112,-0.0197,1.0462,0.0071,0.0001,-0.0012
1139,-0.0217,-0.0161,1.0478,0.0087,0.0031,0.0003
1140,-0.0253,-0.0125,1.0461,0.0121,0.0077,-0.0007
1141,-0.0334,-0.0097,1.048,0.0119,0.0057,-0.0003
1142,-0.0295,-0.0156,1.0499,0.0059,-0.0063,-0.0001
1143,-0.0242,-0.014,1.049,0.008,-0.0067,-0.0027
1144,-0.0267,-0.0134,1.0497,0.0067,-0.0059,-0.0029
1145,-0.0148,-0.0203,1.0465,0.0099,-0.0084,-0.0056
1146,-0.0192,-0.0077,1.0452,0.0081,-0.0064,-0.0047
1147,-0.0164,-0.019,1.0492,0.0093,-0.0025,-0.0037
1148,-0.0172,-0.0112,1.0447,0.012,-0.0024,0.0008
1149,-0.0154,-0.0189,1.0483,0.0064,-0.0031,0.0007
1150,-0.025,-0.0172,1.0502,0.0123,0.0037,0.0
1151,-0.0255,-0.0122,1.0502,0.0132,0.0009,-0.0003
1152,-0.0239,-0.0183,1.0491,0.008,-0.0064,-0.0015
1153,-0.0273,-0.0105,1.0455,0.0144,0.0012,0.0011
1154,-0.0213,-0.0139,1.0494,0.01,-0.0049,0.0055
1155,-0.0257,-0.012,1.0461,0.0064,-0.0071,0.0089
1156,-0.0201,-0.0102,1.0475,0.0119,0.0012,0.0142
1157,-0.0202,-0.0155,1.0497,0.006,-0.008,0.0173
1158,-0.0212,-0.0139,1.0497,0.0061,-0.0077,0.0196
1159,-0.0208,-0.0137,1.0479,0.0087,-0.0028,0.0196
1160,-0.0203,-0.0169,1.0477,0.0089,-0.002,0.0214
1161,-0.0267,-0.0131,1.0473,0.0071,-0.0028,0.0242
1162,-0.0204,-0.0161,1.0486,0.0061,-0.0049,0.0241
1163,-0.0215,-0.0159,1.0492,0.0088,-0.0025,0.0221
1164,-0.0222,-0.0162,1.047,0.0068,-0.0039,0.0182
1165,-0.0204,-0.0169,1.0505,0.0071,-0.0073,0.0113
1166,-0.0209,-0.0117,1.0468,0.0092,-0.0027,0.0013
1167,-0.021,-0.0187,1.0483,0.0101,-0.0027,-0.0016
1168,-0.0263,-0.0136,1.0488,0.0089,-0.0017,-0.0023
1169,-0.0204,-0.0185,1.0482,0.004,-0.0068,-0.0045
1170,-0.0225,-0.0122,1.0484,0.0141,-0.0003,-0.0036
1171,-0.0248,-0.009,1.0479,0.0087,-0.0027,-0.0037
1172,-0.0161,-0.0168,1.0484,0.0067,-0.0023,-0.0019
1173,-0.0204,-0.0178,1.0477,0.006,-0.0021,0.0001
1174,-0.0225,-0.0183,1.0495,0.0089,-0.0017,0.0001
1175,-0.0198,-0.0142,1.0492,0.0109,0.0007,0.0001
1176,-0.0195,-0.0107,1.0472,0.0101,0.0007,-0.0025
1177,-0.0234,-0.012,1.0482,0.006,-0.0016,-0.002
1178,-0.0226,-0.015,1.0506,0.0091,-0.0016,-0.0023
1179,-0.0218,-0.0179,1.0501,0.0087,-0.0016,-0.0008
1180,-0.0218,-0.0151,1.0491,0.0093,-0.0016,-0.0025
1181,-0.0231,-0.0161,1.0495,0.01,-0.0015,-0.0028
1182,-0.0207,-0.0137,1.0497,0.01,-0.0033,-0.0031
1183,-0.0207,-0.0143,1.0503,0.0067,-0.0047,-0.0007
1184,-0.0197,-0.0128,1.051,0.0096,0.0001,-0.0005
1185,-0.0212,-0.0148,1.0494,0.0087,-0.002,0.0015
1186,-0.0202,-0.0176,1.0465,0.0079,-0.0012,0.0013
1187,-0.0203,-0.0145,1.0499,0.0129,0.0023,0.0007
1188,-0.0197,-0.0152,1.0478,0.0115,0.0005,-0.0009
1189,-0.0211,-0.014,1.0498,0.0112,0.0021,-0.0005
1190,-0.0233,-0.0181,1.05,0.0142,0.0024,0.0
1191,-0.0239,-0.0166,1.0486,0.0176,0.0007,0.0016
1192,-0.0299,-0.0082,1.0479,0.015,0.0003,0.0051
1193,-0.0255,-0.0068,1.0476,0.0109,-0.0028,0.0027
1194,-0.0198,-0.011,1.0493,0.0016,-0.0067,-0.0013
1195,-0.0252,-0.0135,1.0496,0.0007,-0.0083,0.0015
1196,-0.0186,-0.0205,1.0468,0.0083,-0.0011,0.0009
1197,-0.0139,-0.0212,1.0477,0.008,-0.0004,0.0037
1198,-0.0231,-0.0153,1.0459,0.0126,0.0008,0.0011
1199,-0.0241,-0.0089,1.0477,0.0097,0.0007,-0.002
1200,-0.0237,-0.0083,1.0468,0.0092,-0.0007,-0.0041
1201,-0.0262,-0.0143,1.049,0.0055,-0.0037,-0.0007
1202,-0.0224,-0.0176,1.0482,0.0055,-0.0055,0.0004
1203,-0.0191,-0.0166,1.0457,0.0108,-0.0015,0.0
1204,-0.0208,-0.0138,1.0494,0.0115,-0.0008,-0.0033
1205,-0.0236,-0.0125,1.0479,0.0109,0.0001,-0.0019
1206,-0.0251,-0.0114,1.0483,0.0077,-0.0017,-0.0008
1207,-0.026,-0.0146,1.0507,0.0072,-0.0019,-0.0024
1208,-0.024,-0.0158,1.0492,0.0045,-0.0037,-0.0057
1209,-0.0189,-0.0178,1.0494,0.0101,-0.002,-0.0041
1210,-0.0215,-0.0114,1.048,0.0121,0.0,-0.0007
1211,-0.0197,-0.0121,1.0486,0.0045,-0.0037,-0.0029
1212,-0.0203,-0.0149,1.0479,0.0111,-0.0001,-0.0033
1213,-0.0236,-0.0162,1.0491,0.0117,-0.0008,-0.0003
1214,-0.0186,-0.0221,1.0492,0.0104,-0.0029,0.0001
1215,-0.0216,-0.0167,1.0464,0.0142,-0.0001,-0.0005
1216,-0.0211,-0.0104,1.0479,0.0257,0.0111,-0.0043
1217,-0.0259,-0.0109,1.049,0.0084,-0.0037,-0.0055
1218,-0.0256,-0.0089,1.0465,0.0096,-0.0023,-0.0001
1219,-0.0248,-0.0093,1.0482,0.0204,0.0071,0.0003
1220,-0.013,-0.0132,1.0511,0.01,-0.0059,0.0037
1221,-0.0056,-0.0127,1.0536,0.0221,0.0068,0.0052
1222,-0.0212,-0.0071,1.0524,0.0248,0.0119,0.0028
1223,-0.0211,-0.0281,1.0464,-0.0184,-0.0346,0.0016
1224,-0.0415,-0.0117,1.0449,0.0301,0.018,0.0093
1225,-0.0454,-0.0154,1.0494,0.0077,-0.0056,0.0035
1226,-0.0162,-0.027,1.0588,0.0133,-0.0051,0.0069
1227,-0.0165,-0.0035,1.0485,0.0352,0.0103,0.0284
1228,-0.0243,0.0023,1.0371,0.0216,-0.0129,0.0471
1229,-0.0036,-0.0042,1.0527,0.0081,-0.0089,0.0387
1230,-0.0212,0.0135,1.0441,-0.017,-0.0258,0.0465
1231,-0.0237,-0.0174,1.0359,-0.015,-0.0087,0.0411
1232,-0.0251,-0.0135,1.0541,-0.0077,-0.0025,0.0329
1233,-0.0278,-0.0433,1.0482,0.0104,0.0035,0.035
1234,-0.0281,-0.024,1.0483,0.0133,-0.0056,0.0336
1235,-0.0193,-0.014,1.0509,0.029,0.0075,0.0166
1236,-0.0239,-0.01,1.05,0.014,0.0001,-0.0024
1237,-0.0282,-0.007,1.0459,0.0008,-0.0071,-0.0132
1238,-0.0261,-0.0075,1.05,0.0091,-0.0057,-0.0071
1239,-0.0192,-0.0095,1.0522,0.0009,-0.0141,0.0043
1240,-0.0062,-0.0096,1.0407,0.0053,-0.0033,-0.0044
1241,-0.0083,-0.0164,1.0449,0.0072,0.0065,-0.0156
1242,-0.0173,-0.0173,1.0494,0.0039,0.0071,-0.0205
1243,-0.0358,-0.0153,1.0504,0.0071,0.008,-0.0209
1244,-0.0479,-0.0132,1.0488,0.0059,-0.0031,-0.0145
1245,-0.0411,-0.0104,1.0523,0.0091,-0.0073,-0.0076
1246,-0.0106,-0.0106,1.0446,0.0108,-0.0085,0.0
1247,0.0007,-0.0103,1.0475,0.0055,-0.0056,-0.0027
1248,-0.0157,-0.0081,1.0498,0.0005,0.0024,-0.0128
1249,-0.0085,-0.0236,1.0557,-0.0015,-0.0025,-0.0133
1250,-0.0273,-0.0191,1.0452,0.0249,0.0204,-0.0125
1251,-0.048,-0.0117,1.0519,0.0244,0.0105,-0.0065
1252,-0.0328,-0.0185,1.0431,-0.0003,-0.0132,-0.0112
1253,-0.0209,-0.0008,1.0545,0.0041,-0.008,-0.0172
1254,-0.0253,-0.0125,1.047,0.0037,-0.0045,-0.0274
1255,-0.0125,-0.0157,1.049,0.002,0.0017,-0.0471
1256,-0.0031,-0.0148,1.0488,0.0104,0.0047,-0.0523
1257,-0.0206,-0.0129,1.0404,0.0157,0.0197,-0.068
1258,0.0027,-0.0148,1.0527,-0.0015,0.0141,-0.0927
1259,-0.0164,-0.0274,1.0515,-0.0068,0.0148,-0.1089
1260,-0.0145,-0.0147,1.0662,0.0434,0.0718,-0.1234
1261,-0.0163,-0.0126,1.0403,0.0121,0.049,-0.1282
1262,-0.0035,-0.0234,1.066,-0.0077,0.0684,-0.1591
1263,0.0132,-0.0145,1.0793,-0.0194,0.0803,-0.1655
1264,-0.0255,-0.0297,1.072,0.024,0.1417,-0.1387
1265,-0.0134,-0.0444,1.0717,0.0324,0.1118,-0.0917
1266,-0.0424,-0.0405,1.0837,0.0723,0.1618,-0.0493
1267,-0.0275,-0.0161,1.1306,0.0807,0.161,-0.0214
1268,-0.0646,-0.014,1.1321,0.0851,0.1381,-0.0242
1269,-0.0933,-0.0051,1.1142,0.0949,0.1174,-0.0422
1270,-0.0677,-0.0056,1.1119,0.083,0.0901,-0.0806
1271,-0.1061,0.0085,1.1221,0.0888,0.0672,-0.1248
1272,-0.0882,-0.0104,1.1356,0.066,-0.0039,-0.1435
1273,-0.0775,-0.014,1.111,0.0664,-0.0537,-0.1551
1274,-0.0845,0.0135,1.1127,0.0941,-0.0698,-0.1494
1275,-0.0564,0.005,1.1263,0.0948,-0.1015,-0.1455
1276,-0.049,0.0046,1.1774,0.0486,-0.1332,-0.1356
1277,-0.0314,0.0201,1.2032,0.0723,-0.1334,-0.1178
1278,-0.0614,0.021,1.1987,0.114,-0.0948,-0.0944
1279,0.0037,0.0076,1.1647,0.0221,-0.1768,-0.1004
1280,-0.0348,0.0419,1.1617,0.0467,-0.1117,-0.1051
1281,-0.0101,0.0206,1.1415,0.0796,-0.084,-0.1067
1282,-0.0452,0.0154,1.1416,0.0103,-0.1469,-0.0951
1283,-0.0164,0.0128,1.1206,0.0278,-0.0909,-0.088
1284,-0.0267,0.0122,1.1554,0.0027,-0.0989,-0.0628
1285,-0.0469,0.014,1.1373,0.0415,-0.059,-0.0285
1286,-0.0347,-0.0041,1.1229,-0.0065,-0.1007,-0.0004
1287,-0.0267,0.0274,1.1051,-0.0064,-0.0794,0.0202
1288,-0.0287,0.0103,1.1017,0.016,-0.0605,0.0433
1289,-0.049,0.015,1.0935,-0.0234,-0.0707,0.0771
1290,-0.0286,0.0226,1.077,-0.0027,-0.0447,0.078
1291,-0.0278,0.0237,1.0705,-0.0083,-0.027,0.0782
1292,-0.0267,0.0028,1.0657,-0.0386,-0.0358,0.0692
1293,-0.0306,0.0176,1.0421,-0.047,-0.0281,0.0651
1294,-0.0285,0.0151,1.0533,-0.0566,-0.02,0.0742
1295,-0.0073,0.0015,1.0532,-0.0437,0.0095,0.0855
1296,-0.0469,0.0022,1.0563,-0.0593,0.002,0.0884
1297,-0.0406,-0.012,1.026,-0.0348,0.0286,0.0899
1298,-0.029,-0.0085,1.0491,-0.0318,0.0213,0.1045
1299,-0.0255,-0.024,1.0216,-0.0447,0.0029,0.1164
1300,-0.0258,0.0101,1.0295,-0.0328,0.0264,0.0988
1301,-0.0093,0.0012,1.017,-0.0144,0.0539,0.0766
1302,-0.0295,-0.0198,1.0292,-0.0103,0.0549,0.0642
1303,-0.0273,0.0002,1.0322,-0.0413,0.0567,0.0569
1304,0.019,0.0153,1.0364,0.0056,0.1059,0.0342
1305,-0.0134,-0.0126,1.0444,-0.0499,0.0924,0.031
1306,-0.0058,0.0084,1.051,-0.0324,0.1467,0.0079
1307,-0.0345,-0.0253,1.0366,-0.0513,0.1463,0.0154
1308,-0.0174,0.0094,1.0547,-0.0597,0.1742,0.0305
1309,-0.0991,-0.0092,0.9825,-0.0072,0.237,0.0088
1310,0.113,-0.1199,1.1521,-0.6381,-0.3973,0.0302
1311,-0.223,0.0917,1.041,0.2056,0.3831,-0.004
1312,-0.0328,-0.147,1.0469,-0.1033,0.1438,0.0549
1313,0.0547,0.0061,1.0057,-0.1818,-0.0209,0.0174
1314,-0.0068,-0.0276,1.0146,-0.0881,0.0573,0.0099
1315,-0.0229,-0.0533,1.0362,-0.1687,0.0212,0.0209
1316,-0.0457,-0.0577,1.0108,-0.1461,-0.0023,-0.0025
1317,-0.093,-0.0331,1.0466,0.0698,0.2003,-0.0146
1318,-0.0432,-0.0969,1.0557,-0.1557,-0.0499,-0.0153
1319,-0.0731,-0.0522,1.0665,-0.0294,0.0329,0.026
1320,-0.0313,-0.0886,1.056,0.0566,0.0933,0.0752
1321,-0.0396,-0.0231,1.1095,0.0877,0.0772,0.0969
1322,-0.0253,-0.0866,1.088,-0.0594,-0.0594,0.075
1323,-0.0657,-0.0082,1.0724,0.1285,0.0947,0.0503
1324,-0.036,-0.0546,1.0974,0.1269,0.0899,0.0531
1325,-0.0073,-0.0443,1.0885,-0.0076,-0.0534,-0.0076
1326,-0.0449,0.0104,1.0605,0.1075,0.0664,-0.0636
1327,-0.0306,-0.0574,1.1039,0.0955,0.0434,-0.0683
1328,-0.062,-0.0549,1.0934,0.0606,-0.0204,-0.008
1329,-0.0997,-0.0425,1.0619,0.1156,-0.0196,0.0254
1330,-0.0528,-0.0102,1.0364,0.1395,-0.0134,0.0048
1331,0.0302,-0.0182,1.0612,0.0602,-0.1486,0.0113
1332,-0.0397,0.0031,1.0955,0.1449,-0.0527,0.0037
1333,-0.0227,0.0163,1.0886,0.1282,-0.0678,0.0037
1334,-0.0128,-0.0107,1.0703,0.0623,-0.1593,-0.0394
1335,-0.0029,0.0222,1.0726,0.0847,-0.1182,-0.0547
1336,-0.0466,0.0112,1.0796,0.0059,-0.1976,-0.0551
1337,-0.0369,0.0034,1.0509,0.018,-0.177,-0.0383
1338,0.0854,-0.021,1.0215,-0.0138,-0.2197,0.0498
1339,-0.0504,-0.0173,1.0313,0.0485,-0.1381,0.1037
1340,-0.0357,-0.0091,1.0538,-0.0364,-0.2457,0.104
1341,-0.0292,-0.0358,1.0411,0.0206,-0.2033,0.082
1342,0.0776,0.0011,1.0552,-0.0237,-0.2265,0.067
1343,-0.0902,0.0315,1.0353,-0.0008,-0.1935,0.0177
1344,0.02,-0.0394,1.0215,-0.0337,-0.2342,0.0071
1345,0.1055,-0.0117,1.0538,-0.0463,-0.2369,0.0522
1346,0.0724,-0.0556,1.0648,0.0242,-0.1208,0.1361
1347,0.0099,-0.0134,1.0319,-0.0579,-0.1759,0.0728
1348,0.0612,-0.0338,1.0358,0.0005,-0.0875,0.0469
1349,0.0259,-0.0599,1.0487,-0.0313,-0.119,0.1202
1350,-0.0501,-0.0169,1.0084,0.0365,-0.0469,0.126
1351,-0.0461,-0.0166,0.9963,-0.0084,-0.1097,0.0529
1352,0.0202,-0.0345,0.9934,0.0096,-0.0676,0.018
1353,0.0077,-0.016,1.0092,0.0197,-0.034,-0.0314
1354,-0.0383,-0.0334,0.9861,0.0265,-0.0213,0.027
1355,-0.0078,-0.0804,0.955,0.0165,-0.0559,0.2015
1356,0.0413,-0.0931,0.9577,0.055,-0.0602,0.2668
1357,-0.0034,-0.0231,0.9525,0.1244,0.0166,0.1879
1358,-0.0161,-0.041,0.9126,0.0941,-0.0406,0.1507
1359,-0.0099,-0.0425,0.8906,0.0642,-0.0794,0.0941
1360,0.0001,-0.0172,0.9415,0.0883,-0.0209,0.1148
1361,-0.0474,-0.0054,0.9359,0.0675,-0.0157,0.1443
1362,-0.0502,-0.0011,0.9196,0.0166,0.0099,0.2634
1363,-0.0056,-0.0052,0.9825,0.1298,0.1931,0.3077
1364,0.1201,0.0042,1.0688,-0.0296,-0.0115,0.3892
1365,-0.0044,0.0385,0.9617,0.0249,0.1431,0.3186
1366,-0.0071,-0.0308,0.9222,0.1529,0.2563,0.1959
1367,0.0139,-0.0035,1.0139,-0.041,-0.0059,0.0623
1368,-0.0176,0.0002,0.8802,-0.0498,-0.0113,0.1016
1369,-0.017,0.0085,1.0101,0.1328,0.2258,0.1012
1370,0.0706,0.0214,0.947,-0.0142,0.0636,0.0893
1371,0.1047,-0.0449,0.9845,-0.0569,-0.0024,0.0671
1372,0.0076,-0.0008,0.9185,-0.0218,0.0558,-0.0447
1373,-0.0308,0.0178,0.8903,0.0092,0.1065,-0.0289
1374,0.004,-0.0103,0.8564,-0.0385,0.0362,0.0008
1375,0.0388,-0.0032,0.9384,-0.0571,0.0493,-0.0156
1376,-0.0317,0.0125,0.9402,-0.0218,0.0822,-0.0383
1377,-0.0708,-0.0067,0.8759,-0.0497,0.037,-0.0377
1378,0.017,-0.0073,0.9175,-0.082,-0.0144,-0.0142
1379,0.0799,-0.0071,0.9656,-0.0526,0.0451,-0.0117
1380,0.0203,-0.0034,0.9862,-0.0346,0.0969,-0.0459
1381,0.029,0.0056,0.9816,-0.0609,0.0856,-0.0678
1382,0.0287,-0.0185,0.9982,-0.0613,0.1057,-0.0967
1383,-0.0368,-0.0114,0.9474,-0.0413,0.1141,-0.0794
1384,0.0189,-0.0201,0.979,-0.0358,0.1169,-0.0561
1385,0.051,-0.0076,1.0034,-0.0309,0.1429,-0.0409
1386,-0.0546,-0.0128,0.9476,0.0027,0.1615,-0.031
1387,-0.0536,-0.0322,0.9468,-0.016,0.1049,-0.0301
1388,-0.0499,-0.0193,0.9766,0.0206,0.1228,-0.0056
1389,-0.0292,-0.0288,0.9495,0.0403,0.1052,0.0395
1390,-0.0497,-0.0188,0.9736,0.0425,0.1055,0.0461
1391,-0.0828,-0.0042,0.9596,0.0443,0.0863,0.0348
1392,-0.0492,-0.0146,0.9473,0.0383,0.0708,0.0292
1393,-0.0439,-0.0178,0.9585,0.0365,0.0513,0.0168
1394,-0.051,-0.0248,0.9704,0.0393,0.0403,0.0075
1395,-0.066,-0.0197,0.9917,0.0305,0.0205,0.0039
1396,-0.0673,-0.0253,0.9813,0.0478,0.0091,0.0158
1397,-0.035,-0.0239,0.9838,0.0317,-0.0189,0.0383
1398,-0.0462,-0.0078,1.0054,0.0386,-0.0132,0.0439
1399,-0.0455,-0.0051,1.0128,0.0262,-0.0372,0.0403
1400,-0.0225,-0.009,1.0396,0.0293,-0.0225,0.0088
1401,0.002,-0.0191,1.0731,-0.0008,-0.0278,-0.0104
1402,-0.0529,-0.0182,1.0598,0.0229,-0.0236,0.0081
1403,-0.0637,-0.0202,1.0234,0.0302,-0.0433,0.0209
1404,-0.0004,-0.0091,1.0803,-0.0047,-0.0513,0.0157
1405,-0.0471,-0.0325,1.1151,0.0257,-0.0045,0.0382
1406,-0.1042,-0.031,1.0564,0.025,-0.0533,0.0551
1407,-0.0651,-0.0001,1.0648,-0.0128,-0.0892,0.0554
1408,-0.017,-0.0093,1.1023,0.0,-0.0487,0.0322
1409,-0.0431,-0.0179,1.0832,0.0461,-0.0305,0.013
1410,-0.0538,-0.0435,1.0595,-0.0216,-0.1076,-0.004
1411,-0.0123,-0.0333,1.0707,-0.0107,-0.1104,0.0277
1412,-0.0101,-0.0363,1.068,0.0696,-0.0375,0.0318
1413,-0.0645,-0.0325,1.0536,0.0897,-0.0366,0.0088
1414,-0.0397,-0.0373,1.0685,0.0133,-0.1325,0.037
1415,-0.0252,-0.0339,1.0543,0.0875,-0.0587,0.0304
1416,-0.0019,-0.0331,1.037,0.1128,-0.0533,0.0153
1417,-0.0069,-0.0324,1.0575,0.0864,-0.0869,0.0543
1418,0.007,-0.0433,1.0573,0.1462,-0.0178,0.064
1419,-0.025,-0.0242,1.0213,0.1233,-0.0349,0.0289
1420,-0.007,-0.0169,1.0549,0.1003,-0.0168,0.0115
1421,0.0186,-0.0084,1.0636,0.151,0.0489,0.0411
1422,0.0119,-0.0108,1.0342,0.1242,0.0226,0.0623
1423,0.0328,0.0217,1.0369,0.0655,0.0483,0.0123
1424,0.0353,0.0221,1.0583,0.0651,0.1146,-0.036
1425,0.0175,-0.0061,1.0488,0.0463,0.1182,-0.0176
1426,0.002,0.009,1.0555,0.0731,0.2055,-0.0301
1427,-0.0328,0.0154,1.0535,0.0277,0.235,-0.0583
1428,-0.0632,-0.0048,1.0276,-0.0056,0.168,-0.0485
1429,-0.0289,-0.0023,1.0172,0.0381,0.2008,-0.0252
1430,-0.0237,-0.0172,1.0322,0.0453,0.2216,-0.0198
1431,-0.0761,0.024,1.013,0.0185,0.1766,-0.0245
1432,-0.0601,0.0161,0.9979,0.075,0.2286,-0.0566
1433,-0.0133,0.0081,1.0215,0.0312,0.1672,-0.0575
1434,-0.0813,0.0324,1.0112,0.0541,0.1775,-0.0349
1435,-0.0778,0.0229,1.0103,0.0835,0.1924,-0.0301
1436,-0.078,0.0147,1.0154,0.0679,0.1612,-0.0418
1437,-0.095,0.0165,1.0276,0.074,0.1344,-0.0411
1438,-0.0804,0.0526,1.0405,0.1079,0.1614,-0.0328
1439,-0.0628,0.0546,1.0353,0.0891,0.1463,-0.0582
1440,-0.0726,0.0344,1.0378,0.0699,0.1375,-0.0762
1441,-0.0618,0.0352,1.0415,0.0728,0.1491,-0.0266
1442,-0.0705,0.04,1.0253,0.07,0.1509,-0.0063
1443,-0.1263,0.0245,1.0162,0.0591,0.1498,-0.0314
1444,-0.0934,0.0157,1.0303,0.0537,0.1317,0.0071
1445,-0.0354,0.0024,1.0365,0.0312,0.0864,0.0495
1446,-0.0721,0.0504,1.0132,0.062,0.1367,0.0378
1447,-0.0971,0.0597,1.0094,0.0441,0.1379,-0.0105
1448,-0.0862,0.0296,1.026,0.0068,0.0889,-0.0328
1449,-0.0952,0.0291,1.0355,0.0068,0.0654,-0.0194
1450,-0.1506,0.0598,1.0216,0.0176,0.0582,-0.0273
1451,-0.1523,0.0384,1.0104,-0.0075,0.0123,-0.0341
1452,-0.1313,0.0238,1.011,-0.0208,-0.0332,0.0008
1453,-0.1296,0.0402,1.013,-0.0274,-0.0744,0.0261
1454,-0.1656,0.0239,1.0339,-0.0278,-0.0943,0.039
1455,-0.1601,0.0212,1.0422,-0.0382,-0.1224,0.0075
1456,-0.1255,0.0003,1.0578,-0.0768,-0.1873,0.0358
1457,-0.0816,-0.0006,1.0589,-0.0423,-0.1899,0.0679
1458,-0.0558,0.001,1.0656,-0.0474,-0.1964,0.0599
1459,-0.0633,-0.0061,1.0646,-0.0483,-0.1836,0.0724
1460,-0.0353,-0.0362,1.0865,-0.0222,-0.1739,0.1193
1461,-0.0405,-0.0426,1.0898,-0.0265,-0.1771,0.1284
1462,-0.1044,-0.0079,1.1201,-0.0025,-0.1292,0.0864
1463,-0.0704,-0.0277,1.1443,-0.0228,-0.1322,0.0406
1464,-0.0401,-0.0027,1.1347,-0.0282,-0.1493,0.0333
1465,-0.0643,-0.004,1.0944,-0.0115,-0.1189,0.0706
1466,-0.0806,-0.0181,1.1036,-0.0158,-0.0957,0.1084
1467,-0.0632,0.0067,1.1096,-0.0296,-0.1089,0.1446
1468,-0.0797,0.023,1.0974,-0.0242,-0.1092,0.1419
1469,-0.0692,0.0212,1.0964,-0.0372,-0.0864,0.1059
1470,-0.059,0.0226,1.111,-0.0642,-0.0913,0.0831
1471,-0.0438,0.0168,1.0923,-0.0626,-0.0835,0.0626
1472,-0.0518,-0.0024,1.0942,-0.0941,-0.0968,0.0434
1473,-0.0703,0.0126,1.0826,-0.0372,-0.0276,0.0166
1474,-0.0571,0.0102,1.1064,-0.0264,-0.0324,0.0228
1475,-0.0711,0.0084,1.1211,-0.073,-0.0815,0.0141
1476,-0.0591,0.0326,1.1162,-0.0486,-0.0607,-0.0055
1477,-0.0406,-0.0042,1.106,-0.0216,-0.0441,-0.0048
1478,-0.0533,-0.0055,1.1085,-0.0174,-0.0454,0.0009
1479,-0.0341,0.027,1.1061,0.0016,-0.0402,0.0076
1480,-0.0112,0.0151,1.0851,0.0031,-0.0374,-0.0169
1481,-0.0233,0.0322,1.0981,-0.0112,-0.0322,-0.0366
1482,-0.0457,0.0227,1.0956,-0.0181,-0.0421,-0.0212
1483,-0.064,0.0248,1.0959,0.0103,-0.0025,-0.0126
1484,-0.0524,0.0244,1.0733,-0.029,-0.0414,-0.0132
1485,-0.0571,0.0128,1.0787,-0.0418,-0.0605,-0.01
1486,-0.0513,0.0187,1.0913,-0.013,-0.0298,0.0064
1487,-0.0653,0.013,1.0926,-0.0181,-0.0378,0.0077
1488,-0.0455,0.0114,1.0678,-0.0278,-0.0467,0.0193
1489,-0.0244,0.0175,1.0785,-0.03,-0.0473,0.0431
1490,-0.0398,0.0209,1.0837,-0.0248,-0.0405,0.0517
1491,-0.0403,0.0289,1.0771,-0.0093,-0.0096,0.025
1492,-0.0204,0.004,1.0635,-0.0557,-0.0517,-0.0043
1493,-0.0281,-0.007,1.0563,-0.0387,-0.0346,0.0021
1494,-0.0258,-0.0042,1.0596,-0.0189,-0.0181,0.0125
1495,-0.0297,-0.0248,1.0585,-0.0064,-0.0189,0.0204
1496,-0.0292,-0.0264,1.0598,0.0,-0.0246,0.0254
1497,-0.0347,-0.0123,1.0803,0.03,-0.0043,0.0399
1498,-0.0344,-0.0162,1.0726,0.0097,-0.0269,0.0366
1499,-0.0422,-0.0043,1.0623,0.0389,0.0013,0.0461
1500,-0.0464,-0.0016,1.072,0.032,0.0185,0.0421
1501,-0.0267,-0.0015,1.0578,0.0028,-0.0162,0.0248
1502,-0.0319,0.0106,1.0289,-0.0125,-0.0113,-0.0117
1503,-0.0284,-0.0341,1.0295,0.0049,0.0244,-0.0377
1504,-0.0361,-0.0318,1.0635,0.0116,0.0025,-0.0113
1505,-0.0382,-0.0514,1.0545,-0.0262,-0.0365,-0.0037
1506,-0.041,-0.0103,1.0532,0.0473,0.0301,-0.0128
1507,-0.0397,-0.0148,1.0607,0.0264,-0.0032,-0.0085
1508,-0.0377,-0.0251,1.0491,-0.0021,-0.0398,-0.0258
1509,-0.0363,-0.0093,1.0431,0.0229,-0.0107,-0.0256
1510,-0.0363,-0.0237,1.0584,0.0353,-0.004,-0.0157
1511,-0.0397,-0.0168,1.065,0.02,-0.012,-0.0182
1512,-0.0297,-0.0068,1.0612,0.0353,-0.0039,-0.0272
1513,-0.0134,0.0041,1.0571,0.0236,-0.017,-0.0196
1514,-0.0023,-0.0345,1.0263,0.0119,-0.0288,-0.02
1515,-0.0209,0.0062,1.0336,0.0344,0.0053,-0.0461
1516,-0.036,-0.0047,1.0573,0.0374,0.0023,-0.0466
1517,-0.0343,-0.0492,1.0455,0.0188,-0.0166,-0.021
1518,-0.0364,0.0102,1.0361,0.0632,0.019,-0.0113
1519,-0.0352,0.0088,1.05,0.0154,-0.0084,-0.0441
1520,-0.0247,0.0084,1.0422,0.0346,-0.0012,-0.0481
1521,-0.0173,-0.0252,1.0457,-0.0055,-0.03,-0.0348
1522,-0.0306,0.0082,1.0391,0.0304,0.0221,-0.0451
1523,-0.021,-0.0048,1.0616,0.0168,0.017,-0.0597
1524,-0.0027,-0.0061,1.0397,0.0093,0.0055,-0.0478
1525,-0.0134,-0.0102,1.0296,-0.0036,0.0091,-0.0374
1526,-0.0186,0.0027,1.0228,0.0112,0.0365,-0.0407
1527,-0.0264,0.0092,1.0453,0.0152,0.0453,-0.0442
1528,-0.0197,-0.0133,1.0507,-0.0068,0.0224,-0.0409
1529,-0.0428,0.0215,1.0522,0.0005,0.0332,-0.0176
1530,-0.0446,0.0337,1.0883,0.0326,0.0977,-0.0218
1531,-0.0663,-0.0146,1.2472,-0.1686,0.1083,-0.0426
1532,0.0231,0.0418,1.2296,-0.245,-0.0618,0.0702
1533,-0.1505,0.0085,0.9802,0.0387,0.2073,0.1134
1534,0.0353,-0.0845,1.0264,-0.1796,-0.059,0.1839
1535,-0.059,-0.0157,1.0142,-0.1505,-0.0415,0.1863
1536,-0.043,-0.0285,1.1555,-0.0947,0.0734,0.1134
1537,0.1318,-0.057,1.3328,-0.0578,-0.0493,0.0192
1538,-0.1512,0.0277,0.9728,0.1361,0.115,-0.1639
1539,-0.0196,-0.0435,1.0866,-0.0474,-0.083,-0.1615
1540,-0.0756,0.0146,1.1443,0.1174,0.0281,-0.1714
1541,-0.0599,0.0027,0.9939,0.1001,-0.0045,-0.2136
1542,-0.001,0.0001,1.1505,-0.0353,-0.1322,-0.1843
1543,-0.0905,0.0319,0.9443,0.0683,0.051,-0.1389
1544,-0.0114,-0.0436,1.073,-0.0103,0.0264,-0.1001
1545,-0.009,0.004,1.0428,-0.0603,-0.0108,-0.0715
1546,-0.0658,-0.0312,1.0515,0.0101,0.0529,-0.0615
1547,-0.0229,-0.0483,1.0468,0.0193,0.0216,-0.0172
1548,-0.0295,-0.0311,1.0554,-0.0041,0.0011,0.0031
1549,-0.0469,-0.0345,1.0604,0.0005,-0.0193,0.0103
1550,-0.0582,-0.0192,1.046,0.0411,0.0341,0.018
1551,-0.0472,-0.0179,1.0412,0.0077,-0.0011,-0.006
1552,-0.0526,-0.0013,1.0436,-0.0132,-0.0096,-0.0284
1553,-0.0634,-0.0156,1.0533,0.0076,0.0055,-0.0493
1554,-0.0413,-0.0126,1.0453,0.0141,-0.0092,-0.0269
1555,-0.0232,-0.042,1.0529,0.0081,-0.016,0.0244
1556,-0.0414,0.0135,1.0425,0.02,0.0113,0.0224
1557,-0.0522,-0.001,1.0522,0.0065,0.0153,-0.0016
1558,-0.0526,-0.0245,1.0512,-0.0111,-0.0092,-0.0188
1559,-0.045,-0.0341,1.0438,0.0137,-0.0095,0.0063
1560,-0.0457,-0.0339,1.0433,0.0003,-0.0193,0.016
1561,-0.0226,-0.0126,1.0419,0.0245,0.0178,-0.015
1562,-0.0446,-0.0306,1.0491,-0.0001,-0.0039,-0.0015
1563,-0.0578,-0.0162,1.0472,0.0107,-0.0015,0.0076
1564,-0.0581,-0.0076,1.0485,0.0174,0.0063,-0.0075
1565,-0.05,-0.0227,1.0465,0.002,-0.0105,-0.0059
1566,-0.0377,-0.0234,1.0458,0.0047,-0.0125,0.0028
